t,Ax,Ay,Az,Gx,Gy,Gz
0.0,0.09814453125,0.0263671875,0.816162109375,-0.679389312977,1.07633587786,-1.15267175573
0.000197172164917,0.1015625,0.03076171875,0.815185546875,-3.00763358779,1.85496183206,0.114503816794
0.0193543434143,0.106201171875,0.02880859375,0.8388671875,-6.39694656489,2.61832061069,0.572519083969
0.0377922058105,0.10400390625,0.04296875,0.84375,-12.0229007634,3.87786259542,1.35114503817
0.0562181472778,0.07958984375,0.013671875,0.841796875,-6.93129770992,3.26717557252,-0.0992366412214
0.0746941566467,0.093994140625,0.04296875,0.849609375,-3.03816793893,0.458015267176,-0.18320610687
0.093150138855,0.105224609375,0.032470703125,0.843017578125,-0.595419847328,0.961832061069,-1.82442748092
0.111604213715,0.102294921875,0.02197265625,0.8564453125,-5.03816793893,0.75572519084,1.37404580153
0.130095243454,0.099609375,0.0009765625,0.848388671875,-4.78625954198,0.137404580153,0.847328244275
0.148553371429,0.095947265625,0.01318359375,0.8125,0.93893129771,-0.641221374046,0.0763358778626
0.167036533356,0.079833984375,0.0087890625,0.820068359375,2.93893129771,-0.709923664122,0.114503816794
0.18549656868,0.10400390625,0.0107421875,0.84326171875,-0.732824427481,-0.541984732824,0.0839694656489
0.203940391541,0.09521484375,0.0126953125,0.813720703125,-4.14503816794,1.63358778626,-1.92366412214
0.222392320633,0.09423828125,0.020263671875,0.842041015625,-1.97709923664,0.618320610687,-0.259541984733
0.240843296051,0.091064453125,0.0166015625,0.8486328125,0.832061068702,-0.480916030534,-0.595419847328
0.259315490723,0.082275390625,0.01171875,0.836181640625,-2.41221374046,-0.282442748092,-1.04580152672
0.277771472931,0.096923828125,0.019775390625,0.837646484375,-6.38167938931,1.06106870229,-0.488549618321
0.296229600906,0.09912109375,0.028564453125,0.84716796875,-1.58778625954,-0.427480916031,-0.389312977099
0.31467962265,0.09912109375,0.025390625,0.841552734375,0.396946564885,-1.03816793893,0.167938931298
0.333131551743,0.101806640625,0.025634765625,0.843017578125,2.53435114504,-1.32824427481,0.0687022900763
0.351581573486,0.103759765625,0.000244140625,0.816650390625,-1.9465648855,0.236641221374,0.312977099237
0.370057582855,0.10791015625,0.021728515625,0.835205078125,-0.358778625954,-0.534351145038,0.770992366412
0.388513565063,0.10302734375,0.021728515625,0.831787109375,-1.54961832061,1.07633587786,0.458015267176
0.406962633133,0.094482421875,0.028076171875,0.84130859375,-0.274809160305,-0.0381679389313,0.190839694656
0.425420761108,0.078125,0.0234375,0.8154296875,-1.83969465649,3.80916030534,0.801526717557
0.443864822388,0.08984375,-0.0068359375,0.8349609375,-6.32824427481,2.34351145038,1.40458015267
0.462334871292,0.092041015625,0.012939453125,0.830810546875,-1.45801526718,1.24427480916,1.17557251908
0.480789899826,0.095458984375,0.02197265625,0.86328125,0.900763358779,-0.511450381679,1.80152671756
0.49923992157,0.086181640625,0.01953125,0.827392578125,0.717557251908,-0.259541984733,1.03816793893
0.517693996429,0.091796875,0.01123046875,0.85546875,-2.92366412214,0.343511450382,0.18320610687
0.536152839661,0.093505859375,0.0,0.835205078125,-4.51908396947,0.030534351145,-0.0687022900763
0.554600954056,0.09130859375,0.025146484375,0.84375,-1.5572519084,-0.519083969466,-0.0992366412214
0.573075056076,0.09619140625,0.019287109375,0.82568359375,-1.18320610687,-0.63358778626,0.419847328244
0.591529846191,0.09375,0.00341796875,0.828369140625,2.32061068702,0.473282442748,-0.267175572519
0.609983921051,0.098876953125,0.007080078125,0.85595703125,3.29770992366,-2.10687022901,-0.419847328244
0.628437995911,0.091064453125,0.00439453125,0.81201171875,-1.91603053435,-0.389312977099,-1.87022900763
0.646888017654,0.091064453125,0.01513671875,0.8251953125,0.0992366412214,0.885496183206,-0.343511450382
0.665348052979,0.09423828125,0.030517578125,0.857177734375,1.35877862595,0.18320610687,-0.0763358778626
0.683817148209,0.106201171875,0.0341796875,0.851806640625,1.7786259542,-0.893129770992,0.312977099237
0.702270269394,0.082763671875,0.008056640625,0.84228515625,1.31297709924,-0.687022900763,-0.419847328244
0.720718383789,0.08544921875,0.02294921875,0.855224609375,2.88549618321,-1.45801526718,-0.465648854962
0.73917222023,0.0849609375,0.012451171875,0.828857421875,4.13740458015,-2.17557251908,0.0458015267176
0.757761240005,0.078857421875,0.004638671875,0.82958984375,-2.35877862595,-0.702290076336,-0.114503816794
0.776242256165,0.087646484375,0.00341796875,0.836181640625,-0.442748091603,-0.251908396947,-2.17557251908
0.794697284698,0.08837890625,0.00146484375,0.84033203125,-0.0229007633588,-1.48091603053,-2.84732824427
0.813150167465,0.08740234375,0.01171875,0.822265625,1.09160305344,-0.893129770992,-2.38167938931
0.831600189209,0.07958984375,0.024169921875,0.840576171875,3.26717557252,-1.19083969466,-1.67938931298
0.850051164627,0.087890625,0.0166015625,0.835205078125,4.3893129771,-0.946564885496,-1.48854961832
0.868503093719,0.08544921875,0.031005859375,0.851806640625,2.83969465649,-0.526717557252,-1.41221374046
0.886952161789,0.0849609375,0.022705078125,0.846435546875,-3.54961832061,-0.24427480916,-0.30534351145
0.905409097672,0.1064453125,0.03125,0.83837890625,-1.8320610687,-0.709923664122,-0.511450381679
0.923864126205,0.088623046875,0.017333984375,0.841552734375,-0.946564885496,-0.587786259542,-1.24427480916
0.942323207855,0.0888671875,0.021240234375,0.81591796875,5.25954198473,-0.290076335878,-1.37404580153
0.960782051086,0.09814453125,0.03271484375,0.841552734375,9.23664122137,-2.31297709924,-1.21374045802
0.979264974594,0.09375,0.022705078125,0.855224609375,12.3282442748,-3.08396946565,-1.70229007634
0.997730016708,0.096435546875,0.028564453125,0.874755859375,13.4503816794,-5.08396946565,-0.740458015267
1.01619291306,0.095703125,0.02880859375,0.822265625,9.06106870229,-3.91603053435,-0.129770992366
1.03464889526,0.087646484375,0.029052734375,0.84033203125,13.2748091603,-3.39694656489,-1.29770992366
1.0531039238,0.094970703125,0.04248046875,0.8515625,16.7633587786,-5.32061068702,-1.25954198473
1.07156300545,0.089599609375,0.04833984375,0.842041015625,16.7709923664,-3.48854961832,-2.13740458015
1.09004497528,0.095458984375,0.052734375,0.83056640625,11.2442748092,-2.40458015267,-1.70229007634
1.10850405693,0.104736328125,0.066650390625,0.86767578125,15.5877862595,-5.48854961832,-1.17557251908
1.12695908546,0.09765625,0.06396484375,0.83984375,19.5572519084,-6.52671755725,-0.0839694656489
1.14542603493,0.1044921875,0.082763671875,0.845458984375,25.6870229008,-7.30534351145,-2.09160305344
1.16387796402,0.115234375,0.10693359375,0.85888671875,41.2366412214,-10.8549618321,-1.34351145038
1.18235778809,0.105712890625,0.206298828125,0.80029296875,31.1679389313,-5.45038167939,-2.03053435115
1.20081686974,0.095458984375,0.0771484375,0.832763671875,25.4732824427,-6.23664122137,-1.65648854962
1.21927475929,0.115966796875,0.1328125,0.838623046875,31.8549618321,-7.09160305344,-0.977099236641
1.23773670197,0.09619140625,0.124267578125,0.82177734375,18.3053435115,-4.49618320611,0.0458015267176
1.25619864464,0.1123046875,0.11279296875,0.8037109375,16.4122137405,-2.89312977099,-0.320610687023
1.2746515274,0.1103515625,0.183837890625,0.8076171875,35.5114503817,-2.82442748092,0.809160305344
1.29310846329,0.1201171875,0.158203125,0.82421875,25.7480916031,-1.3893129771,1.84732824427
1.31157636642,0.125732421875,0.149169921875,0.88525390625,36.8396946565,-6.19083969466,-4.0
1.33003425598,0.116455078125,0.1103515625,0.849365234375,53.7786259542,-10.0992366412,-10.320610687
1.34849619865,0.114990234375,0.221435546875,0.77099609375,59.1908396947,-2.29007633588,-3.13740458015
1.36695408821,0.1181640625,0.14013671875,0.917236328125,25.8244274809,-5.89312977099,-9.2213740458
1.38544511795,0.11083984375,0.203369140625,0.801513671875,13.358778626,-1.2213740458,-3.41221374046
1.40390825272,0.123046875,0.21533203125,0.8291015625,8.19847328244,-0.832061068702,-3.45038167939
1.42236423492,0.120849609375,0.231689453125,0.835205078125,14.9236641221,-3.04580152672,-2.0534351145
1.44082140923,0.117919921875,0.207275390625,0.831298828125,33.1221374046,-6.80152671756,-4.35877862595
1.4592795372,0.1220703125,0.2451171875,0.80322265625,29.3053435115,-6.68702290076,-5.69465648855
1.47774147987,0.138671875,0.290283203125,0.822509765625,42.9770992366,-4.08396946565,-7.96946564885
1.49622941017,0.129638671875,0.30078125,0.810546875,68.2290076336,-7.20610687023,-6.51908396947
1.51475048065,0.127685546875,0.299072265625,0.8056640625,36.2290076336,-4.50381679389,-4.63358778626
1.53321146965,0.11572265625,0.215576171875,0.80517578125,17.0610687023,-2.5572519084,-4.25190839695
1.55166864395,0.11279296875,0.268798828125,0.797607421875,19.3358778626,-3.48091603053,-4.50381679389
1.57012677193,0.12109375,0.28662109375,0.78955078125,64.3053435115,-6.69465648855,-5.45038167939
1.58861398697,0.109619140625,0.32763671875,0.782958984375,46.5419847328,-8.50381679389,-10.6106870229
1.60707616806,0.112060546875,0.204345703125,0.7841796875,30.8320610687,-6.41221374046,-17.2900763359
1.6255402565,0.135986328125,0.421875,0.784912109375,64.7022900763,-6.95419847328,-8.96183206107
1.64399433136,-0.016357421875,0.5546875,0.642822265625,226.664122137,2.53435114504,-8.77099236641
1.66245317459,0.1318359375,0.46337890625,0.722900390625,57.7557251908,-6.99236641221,-7.45038167939
1.6809091568,0.115234375,0.3818359375,0.83056640625,66.7175572519,-12.5419847328,-12.6870229008
1.69939303398,0.130615234375,0.329345703125,0.559326171875,175.221374046,18.641221374,-11.6488549618
1.71785712242,0.12939453125,0.60205078125,0.5078125,34.427480916,-0.152671755725,-9.08396946565
1.7363140583,0.135498046875,0.514892578125,0.6884765625,27.7938931298,-5.6106870229,-9.32824427481
1.75477218628,0.13525390625,0.504638671875,0.682373046875,38.0305343511,-7.67175572519,-10.8549618321
1.77322626114,0.146484375,0.462646484375,0.723876953125,69.0305343511,-10.106870229,-12.2977099237
1.79170012474,0.15185546875,0.39111328125,0.59619140625,250.129770992,-3.80916030534,-29.4885496183
1.81016206741,0.143798828125,0.465576171875,0.76171875,47.106870229,-7.10687022901,-15.5801526718
1.82862496376,0.117919921875,0.559814453125,0.608154296875,39.3129770992,-0.198473282443,-15.9312977099
1.84708189964,0.119873046875,0.6103515625,0.600830078125,30.8549618321,2.0,-4.80152671756
1.86560487747,0.122314453125,0.639404296875,0.64599609375,11.2290076336,2.40458015267,-2.4427480916
1.88407373428,0.1201171875,0.6162109375,0.595947265625,7.71755725191,0.282442748092,-4.30534351145
1.90255784988,0.130859375,0.650634765625,0.635986328125,5.49618320611,-3.45801526718,-4.84732824427
1.92101478577,0.109130859375,0.61376953125,0.598388671875,22.1374045802,-6.99236641221,-7.65648854962
1.93945288658,0.11474609375,0.58984375,0.56591796875,33.9618320611,-6.49618320611,-11.8702290076
1.95789480209,0.12890625,0.729736328125,0.56640625,31.9618320611,-4.43511450382,-10.4122137405
1.97635865211,0.12646484375,0.719970703125,0.552734375,53.358778626,-7.45801526718,-12.6106870229
1.99488067627,0.20166015625,0.61279296875,0.552001953125,250.129770992,21.1297709924,-13.3511450382
2.01334166527,0.12939453125,0.83544921875,0.397216796875,43.1221374046,-6.90839694656,-14.2366412214
2.03180146217,0.113525390625,0.707763671875,0.509765625,27.2366412214,-6.41984732824,-15.4122137405
2.05025744438,0.12451171875,0.737060546875,0.494873046875,1.7786259542,1.74045801527,-8.18320610687
2.06871747971,0.1015625,0.726806640625,0.533935546875,-6.09923664122,1.51145038168,-7.29007633588
2.08717441559,0.117431640625,0.76025390625,0.506103515625,-9.59541984733,-0.87786259542,-5.74809160305
2.10566043854,0.100341796875,0.72998046875,0.4609375,10.5114503817,-3.03053435115,-3.77099236641
2.12406849861,0.0966796875,0.85107421875,0.279296875,26.4045801527,8.95419847328,-0.564885496183
2.14252448082,0.103515625,0.739013671875,0.50244140625,18.213740458,0.625954198473,-2.91603053435
2.16097950935,0.10791015625,0.7216796875,0.4833984375,25.0,-1.12977099237,-4.99236641221
2.17943763733,0.096923828125,0.751220703125,0.5283203125,21.8396946565,-1.64122137405,-7.20610687023
2.19792461395,0.102783203125,0.76318359375,0.48583984375,26.7709923664,-0.0992366412214,-8.39694656489
2.21638965607,0.10205078125,0.7763671875,0.4697265625,8.6641221374,3.09923664122,-4.40458015267
2.23485350609,0.094970703125,0.7548828125,0.466796875,1.43511450382,4.6106870229,-4.70229007634
2.25330638885,0.088623046875,0.76611328125,0.48583984375,11.8702290076,3.45038167939,-5.76335877863
2.27189826965,0.097412109375,0.797607421875,0.517333984375,24.0610687023,-1.07633587786,-2.30534351145
2.29035329819,0.093505859375,0.781005859375,0.5009765625,30.679389313,-2.79389312977,-2.74045801527
2.30883336067,0.085205078125,0.7509765625,0.451171875,31.1755725191,-2.95419847328,-5.31297709924
2.32728528976,0.07958984375,0.767333984375,0.429931640625,13.1908396947,1.99236641221,-4.69465648855
2.34573411942,0.085693359375,0.76806640625,0.484130859375,17.9160305344,-0.251908396947,-5.12977099237
2.36418199539,0.088134765625,0.791259765625,0.496337890625,15.6030534351,-0.977099236641,-4.42748091603
2.38263106346,0.08349609375,0.789794921875,0.427734375,5.27480916031,0.63358778626,-4.14503816794
2.40110206604,0.082275390625,0.805419921875,0.442138671875,10.3511450382,-1.23664122137,-2.46564885496
2.41956019402,0.10693359375,0.7861328125,0.447021484375,0.358778625954,2.10687022901,-2.34351145038
2.4380133152,0.085693359375,0.81005859375,0.447021484375,5.74045801527,-0.274809160305,-1.02290076336
2.45646739006,0.0888671875,0.79296875,0.463623046875,6.8320610687,-1.75572519084,-1.03053435115
2.47492647171,0.0849609375,0.796630859375,0.41357421875,-1.48854961832,-1.88549618321,-3.13740458015
2.49337053299,0.085205078125,0.807861328125,0.41650390625,-0.69465648855,2.60305343511,-2.4427480916
2.51184558868,0.086181640625,0.812255859375,0.4453125,5.25190839695,2.07633587786,-0.862595419847
2.53032755852,0.090087890625,0.7841796875,0.435791015625,6.0534351145,0.312977099237,-0.969465648855
2.54878640175,0.08544921875,0.79541015625,0.443603515625,3.72519083969,1.07633587786,-1.89312977099
2.56725049019,0.084228515625,0.81201171875,0.482177734375,-2.74045801527,-0.961832061069,-0.63358778626
2.58570146561,0.07568359375,0.778076171875,0.430908203125,-5.45038167939,-1.86259541985,-2.38167938931
2.60417842865,0.072509765625,0.791015625,0.42724609375,-3.91603053435,-1.57251908397,-2.68702290076
2.62263441086,0.063720703125,0.80029296875,0.43017578125,-1.63358778626,-1.04580152672,-1.32824427481
2.6410844326,0.0771484375,0.787109375,0.4482421875,-4.72519083969,0.320610687023,-0.954198473282
2.65953445435,0.07568359375,0.783203125,0.426025390625,-3.89312977099,-0.419847328244,-1.56488549618
2.67798948288,0.080078125,0.8076171875,0.431396484375,-1.31297709924,-0.0152671755725,-0.152671755725
2.69643855095,0.074951171875,0.77783203125,0.427001953125,-1.74045801527,0.824427480916,-0.954198473282
2.71492147446,0.08984375,0.788330078125,0.46484375,-14.5038167939,0.961832061069,-0.916030534351
2.73336553574,0.078369140625,0.783935546875,0.446533203125,-20.0152671756,-0.679389312977,-1.20610687023
2.75181555748,0.083740234375,0.8037109375,0.426513671875,-13.6106870229,1.7786259542,-1.64122137405
2.77026772499,0.0908203125,0.8173828125,0.4619140625,-9.77099236641,0.969465648855,0.916030534351
2.78871774673,0.081298828125,0.784423828125,0.492919921875,-12.0229007634,-0.480916030534,1.87022900763
2.80718970299,0.071044921875,0.77099609375,0.47607421875,-15.1221374046,-2.6106870229,1.42748091603
2.82564973831,0.075439453125,0.781005859375,0.447265625,-11.7938931298,-2.73282442748,0.473282442748
2.84409761429,0.063232421875,0.78173828125,0.45458984375,-2.84732824427,-1.83969465649,1.04580152672
2.86254572868,0.08349609375,0.7861328125,0.456298828125,-8.31297709924,-0.679389312977,1.06106870229
2.88099384308,0.0732421875,0.779296875,0.4658203125,-21.5038167939,1.58778625954,0.748091603053
2.8994410038,0.06884765625,0.830078125,0.557861328125,-36.7175572519,0.564885496183,3.90076335878
2.91789102554,0.067138671875,0.755859375,0.521240234375,-52.6030534351,0.740458015267,-0.587786259542
2.93634796143,0.069091796875,0.736328125,0.454345703125,-40.5267175573,1.91603053435,-2.26717557252
2.95481085777,0.081298828125,0.721435546875,0.506103515625,-52.8549618321,5.29007633588,-1.93893129771
2.97326183319,0.08935546875,0.710693359375,0.515869140625,-65.7404580153,4.34351145038,-0.374045801527
2.9917178154,0.09228515625,0.7216796875,0.546142578125,-50.9694656489,2.06870229008,0.496183206107
3.01019573212,0.09130859375,0.73974609375,0.55615234375,-35.4427480916,-1.62595419847,2.64885496183
3.02874469757,0.0888671875,0.757568359375,0.60009765625,-36.9236641221,-0.213740458015,4.80152671756
3.04720664024,0.0830078125,0.731689453125,0.548095703125,-46.4961832061,2.54198473282,2.78625954198
3.06567168236,0.080078125,0.663818359375,0.569580078125,-64.7480916031,3.52671755725,1.96183206107
3.08412790298,0.08642578125,0.63330078125,0.5615234375,-51.1145038168,4.30534351145,-0.847328244275
3.10258197784,0.0634765625,0.67333984375,0.633056640625,-47.7786259542,1.51145038168,3.58778625954
3.12106490135,0.0703125,0.582763671875,0.598388671875,-61.2595419847,2.60305343511,0.931297709924
3.13952493668,0.076171875,0.677978515625,0.63720703125,-22.2290076336,-0.396946564885,6.12977099237
3.15798807144,0.07080078125,0.587646484375,0.614990234375,-23.2519083969,1.82442748092,3.48091603053
3.17644619942,0.070068359375,0.579345703125,0.621337890625,-36.2748091603,4.88549618321,2.23664122137
3.19491124153,0.0732421875,0.6181640625,0.667724609375,-52.9389312977,4.97709923664,4.35877862595
3.21338415146,0.06396484375,0.54736328125,0.634033203125,-42.5801526718,4.43511450382,3.0
3.23184609413,0.076416015625,0.597900390625,0.630126953125,-55.641221374,5.39694656489,3.30534351145
3.25030207634,0.071533203125,0.57080078125,0.6513671875,-70.8854961832,6.59541984733,0.931297709924
3.26876616478,0.0712890625,0.572509765625,0.68701171875,-41.2290076336,0.0381679389313,2.97709923664
3.28722214699,0.049560546875,0.5048828125,0.6796875,-50.7251908397,2.74045801527,1.67175572519
3.30568313599,0.064208984375,0.476318359375,0.723388671875,-39.1145038168,1.60305343511,2.25190839695
3.32416319847,0.074951171875,0.57373046875,0.699951171875,-60.4198473282,3.65648854962,2.76335877863
3.34262228012,0.094970703125,0.55517578125,0.623046875,-111.961832061,2.34351145038,2.98473282443
3.361079216,0.0703125,0.4130859375,0.748291015625,-66.4961832061,2.4427480916,-2.97709923664
3.37954425812,0.093505859375,0.60546875,0.7001953125,-33.8244274809,6.7786259542,5.61832061069
3.39800620079,0.072265625,0.2294921875,0.870361328125,-107.984732824,-3.99236641221,-6.79389312977
3.41646313667,0.06884765625,0.340576171875,0.834228515625,-60.1908396947,0.190839694656,-0.503816793893
3.43493127823,0.0654296875,0.36083984375,0.795166015625,-49.9312977099,1.87786259542,0.679389312977
3.45338129997,0.063232421875,0.44775390625,0.698974609375,-96.6183206107,5.53435114504,-0.145038167939
3.47183728218,0.05126953125,0.314697265625,0.73876953125,-137.328244275,4.53435114504,-7.90076335878
3.49029326439,0.0322265625,0.2177734375,0.8740234375,-120.312977099,-2.85496183206,-6.03053435115
3.50879335403,0.053466796875,0.226318359375,0.842529296875,-55.9312977099,0.809160305344,2.46564885496
3.52727746964,0.0556640625,0.224365234375,0.867919921875,-34.1755725191,-3.1679389313,4.38167938931
3.54573249817,0.055908203125,0.207763671875,0.82421875,-14.4045801527,-6.16030534351,7.27480916031
3.56418466568,0.050048828125,0.172119140625,0.790283203125,-22.2595419847,-2.58778625954,7.23664122137
3.58263683319,0.058349609375,0.177978515625,0.81494140625,-27.5419847328,-1.1679389313,5.10687022901
3.60108661652,0.05419921875,0.158447265625,0.822998046875,-44.9465648855,-1.06106870229,2.04580152672
3.61956071854,0.05078125,0.14990234375,0.84130859375,-62.1908396947,-1.16030534351,-10.1908396947
3.6380546093,0.056396484375,0.138671875,0.869384765625,-25.4732824427,-4.6106870229,3.16030534351
3.65650844574,0.068603515625,0.1640625,0.85595703125,-31.9465648855,-2.0,8.8320610687
3.67497038841,0.0634765625,0.12548828125,0.8212890625,-45.1450381679,-0.656488549618,8.73282442748
3.69341421127,0.069580078125,0.263916015625,0.771484375,-19.320610687,0.152671755725,6.6641221374
3.71236228943,0.07763671875,0.129150390625,0.83837890625,-26.5267175573,-3.12977099237,3.09923664122
3.73084712029,0.055908203125,0.093994140625,0.8115234375,-25.4427480916,-1.28244274809,4.09160305344
3.74928808212,0.06884765625,0.098388671875,0.821044921875,-56.9847328244,0.0,3.46564885496
3.76774501801,0.0869140625,0.21044921875,0.748291015625,-30.2061068702,3.78625954198,4.70229007634
3.78629994392,0.0546875,0.0498046875,0.859375,-27.4732824427,-4.19847328244,0.908396946565
3.80476498604,0.065673828125,0.031005859375,0.840576171875,-43.8625954198,-2.46564885496,-8.74045801527
3.82323312759,0.05126953125,-0.010498046875,0.817626953125,-13.9007633588,1.68702290076,-1.31297709924
3.84169101715,0.076904296875,0.017822265625,0.86572265625,-2.79389312977,-3.81679389313,2.63358778626
3.86014604568,0.06298828125,-0.012939453125,0.8466796875,-13.572519084,-1.80916030534,1.35114503817
3.87860321999,0.0576171875,-0.0185546875,0.821044921875,-22.0381679389,-1.16030534351,-1.46564885496
3.89705824852,0.049560546875,0.007080078125,0.841796875,-25.7938931298,1.36641221374,-1.73282442748
3.91551327705,0.06689453125,0.00390625,0.833740234375,-14.7251908397,0.587786259542,0.320610687023
3.93399429321,0.07080078125,0.00927734375,0.8349609375,-4.29007633588,-1.70992366412,-0.267175572519
3.9524512291,0.0634765625,-0.028076171875,0.8388671875,-9.88549618321,0.160305343511,-0.152671755725
3.97090220451,0.0595703125,-0.00048828125,0.814208984375,7.15267175573,-1.16030534351,-1.49618320611
3.9893682003,0.0556640625,-0.03125,0.82861328125,13.679389313,-0.526717557252,-1.42748091603
4.00782513618,0.059814453125,-0.00537109375,0.8388671875,13.7404580153,-0.69465648855,-0.564885496183
4.02631211281,0.052734375,-0.033935546875,0.83837890625,-18.6488549618,1.90839694656,0.351145038168
4.04477715492,0.046875,-0.028076171875,0.84765625,-22.0916030534,1.31297709924,-0.381679389313
4.06322622299,0.052001953125,-0.0234375,0.844970703125,-20.2900763359,0.870229007634,-1.45801526718
4.08168435097,0.055908203125,-0.015625,0.8515625,2.27480916031,-0.435114503817,-1.22900763359
4.10014247894,0.06494140625,-0.02880859375,0.8515625,8.0,-2.04580152672,-1.87022900763
4.11863446236,0.0654296875,0.001953125,0.822021484375,4.7786259542,-1.56488549618,0.389312977099
4.13711762428,0.073486328125,-0.01953125,0.8203125,14.0458015267,-1.4427480916,-0.312977099237
4.15557765961,0.069580078125,-0.026123046875,0.828369140625,14.4961832061,-1.50381679389,-0.167938931298
4.17403149605,0.0625,-0.026611328125,0.833251953125,15.3129770992,-1.54961832061,-0.931297709924
4.19248867035,0.060302734375,-0.015625,0.7880859375,-0.0839694656489,-0.717557251908,0.236641221374
4.21094465256,0.0634765625,-0.005615234375,0.84033203125,-5.27480916031,1.15267175573,0.541984732824
4.22942972183,0.06689453125,-0.010009765625,0.869384765625,0.0534351145038,-0.664122137405,-0.458015267176
4.24791574478,0.066162109375,-0.015625,0.849609375,8.60305343511,-0.992366412214,-1.29770992366
4.26637887955,0.063232421875,0.00146484375,0.8505859375,14.534351145,-2.22900763359,-0.419847328244
4.28484487534,0.062744140625,0.00390625,0.817626953125,8.26717557252,-3.89312977099,0.175572519084
4.30329489708,0.06884765625,-0.0029296875,0.857666015625,-2.61832061069,-0.770992366412,0.175572519084
4.32174777985,0.068359375,-0.006591796875,0.835693359375,-1.40458015267,-1.24427480916,-1.74045801527
4.34023070335,0.068359375,-0.015869140625,0.8525390625,-1.32824427481,-1.97709923664,-3.03053435115
4.35869765282,0.052001953125,-0.02294921875,0.797119140625,-1.32824427481,-1.29770992366,-3.20610687023
4.37715673447,0.059814453125,-0.00537109375,0.83837890625,-10.3053435115,-0.290076335878,-1.68702290076
4.39562273026,0.069580078125,0.00390625,0.8310546875,-7.32061068702,0.69465648855,-1.41221374046
4.41407895088,0.07763671875,-0.004638671875,0.8505859375,-2.08396946565,0.396946564885,-1.63358778626
4.43255591393,0.06787109375,-0.01318359375,0.855224609375,1.95419847328,-0.335877862595,-1.45801526718
4.4510178566,0.067138671875,-0.00927734375,0.841796875,2.37404580153,-0.992366412214,-0.30534351145
4.46947789192,0.062255859375,-0.013916015625,0.85205078125,7.79389312977,-2.76335877863,-0.961832061069
4.4879360199,0.07666015625,0.005859375,0.815185546875,12.8549618321,-2.41221374046,-0.549618320611
4.50639891624,0.07421875,0.017822265625,0.812744140625,16.0839694656,-3.90076335878,0.343511450382
4.52486491203,0.0634765625,0.006591796875,0.815673828125,7.03816793893,2.6641221374,0.427480916031
4.54339599609,0.06591796875,-0.002685546875,0.84814453125,-2.09160305344,0.870229007634,-0.786259541985
4.56186294556,0.06494140625,0.0693359375,0.800537109375,-0.572519083969,0.328244274809,-1.63358778626
4.58032083511,0.081787109375,0.013427734375,0.809814453125,-14.5267175573,-1.43511450382,-2.08396946565
4.59878182411,0.064453125,0.002197265625,0.85888671875,-8.09923664122,-0.511450381679,-1.48854961832
4.61724090576,0.061767578125,0.029296875,0.84033203125,-2.96946564885,-3.87786259542,-1.12213740458
4.63570284843,0.064453125,0.01513671875,0.8447265625,-5.14503816794,-0.93893129771,-0.916030534351
4.65418171883,0.06005859375,0.007080078125,0.837646484375,-8.87786259542,-0.190839694656,-0.427480916031
4.67264056206,0.06689453125,-0.030029296875,0.844482421875,-17.6946564885,0.106870229008,-0.213740458015
4.69109964371,0.06689453125,-0.015869140625,0.83447265625,-30.9618320611,0.984732824427,0.435114503817
4.70956468582,0.066650390625,-0.04052734375,0.84375,-46.4885496183,1.51908396947,0.129770992366
4.7280216217,0.056884765625,-0.048583984375,0.80078125,-63.3664122137,1.95419847328,-5.32824427481
4.74650454521,0.067138671875,-0.0263671875,0.822021484375,-69.786259542,6.37404580153,-12.2977099237
4.76497745514,0.074462890625,-0.075439453125,0.874267578125,-74.8396946565,3.59541984733,-31.2977099237
4.78342843056,0.0693359375,-0.177734375,0.792236328125,-56.0992366412,7.59541984733,-14.2213740458
4.80188727379,0.04443359375,-0.16064453125,0.834228515625,-117.519083969,11.9160305344,-24.9389312977
4.82030820847,-0.024169921875,-0.07275390625,0.662109375,-93.786259542,14.1755725191,-14.1450381679
4.83877420425,0.080078125,-0.213134765625,0.9169921875,-181.603053435,3.37404580153,-15.7251908397
4.85725808144,0.059326171875,-0.26123046875,0.80712890625,-98.4885496183,6.38167938931,-19.0152671756
4.87575697899,0.013427734375,-0.382080078125,0.7958984375,-139.480916031,-5.28244274809,-5.22900763359
4.8942220211,0.04833984375,-0.324951171875,0.79638671875,-95.8091603053,0.664122137405,-4.03053435115
4.9126791954,0.0419921875,-0.390869140625,0.779541015625,-40.7328244275,-2.11450381679,1.07633587786
4.93113613129,0.049072265625,-0.337890625,0.755859375,-28.893129771,-0.374045801527,2.65648854962
4.94959807396,0.05615234375,-0.351318359375,0.7568359375,-27.7251908397,2.48854961832,3.21374045802
4.96807909012,0.0576171875,-0.39013671875,0.788818359375,-19.1908396947,0.381679389313,3.85496183206
4.98654294014,0.06005859375,-0.4287109375,0.796142578125,-18.2519083969,-1.90076335878,-0.671755725191
5.00503396988,0.03955078125,-0.38232421875,0.7333984375,-37.5190839695,0.709923664122,2.26717557252
5.0234940052,0.04638671875,-0.357177734375,0.71875,-49.2900763359,-1.64122137405,4.87786259542
5.04195094109,0.050537109375,-0.390869140625,0.77978515625,-35.0763358779,-1.2213740458,3.20610687023
5.06045603752,-0.048095703125,-0.324462890625,0.773193359375,-31.3282442748,0.709923664122,2.8320610687
5.07891702652,0.049560546875,-0.41650390625,0.720703125,-45.1984732824,1.15267175573,2.48091603053
5.09737420082,0.058349609375,-0.51171875,0.767578125,-41.7480916031,-1.32824427481,-3.62595419847
5.1158323288,0.032958984375,-0.637451171875,0.71337890625,-67.6717557252,-10.8091603053,-3.09160305344
5.13433337212,0.037841796875,-0.43115234375,0.654052734375,-28.6183206107,4.32061068702,-4.29770992366
5.15279340744,0.051513671875,-0.44580078125,0.703125,-33.1526717557,3.32824427481,-0.748091603053
5.17125248909,0.044189453125,-0.51318359375,0.76220703125,-45.8854961832,1.12213740458,-3.20610687023
5.18971848488,0.045654296875,-0.513916015625,0.687255859375,-32.0,2.80916030534,-0.0610687022901
5.20817661285,0.051025390625,-0.526611328125,0.731201171875,-27.9465648855,0.648854961832,-3.5572519084
5.22663974762,0.060302734375,-0.527099609375,0.664794921875,-32.6641221374,6.3893129771,-4.37404580153
5.24510478973,0.018310546875,-0.535888671875,0.62255859375,-30.7404580153,6.76335877863,-4.59541984733
5.26358580589,0.0439453125,-0.55908203125,0.64013671875,-34.0687022901,11.5419847328,-5.81679389313
5.28204369545,0.05224609375,-0.546875,0.72900390625,-35.6488549618,7.09923664122,-5.5572519084
5.30059361458,0.056640625,-0.518798828125,0.6884765625,-38.6183206107,5.77099236641,-0.702290076336
5.31907558441,0.04736328125,-0.603271484375,0.594482421875,-42.7786259542,6.65648854962,-4.16030534351
5.3375377655,0.0390625,-0.637451171875,0.6298828125,-45.7709923664,14.8473282443,-8.58778625954
5.35600280762,0.047119140625,-0.5908203125,0.69921875,-56.4122137405,10.7175572519,-8.32061068702
5.37446784973,0.037109375,-0.55078125,0.529052734375,-68.3893129771,8.09160305344,-1.68702290076
5.39292478561,0.0126953125,-0.591796875,0.55322265625,-95.8244274809,9.45038167939,-2.92366412214
5.41138076782,0.04296875,-0.55078125,0.49658203125,-57.3358778626,16.5267175573,-0.259541984733
5.42984366417,0.02197265625,-0.683349609375,0.589111328125,-63.9923664122,10.641221374,-0.282442748092
5.4482986927,0.031982421875,-0.6591796875,0.54052734375,-63.6488549618,14.7633587786,2.57251908397
5.46678853035,0.055908203125,-0.6220703125,0.601318359375,-55.3893129771,12.7328244275,7.1679389313
5.48525547981,0.06103515625,-0.679443359375,0.646240234375,-46.427480916,4.11450381679,7.84732824427
5.50371336937,0.039306640625,-0.708740234375,0.5927734375,-28.4351145038,-3.03053435115,6.93129770992
5.52217245102,0.014892578125,-0.774169921875,0.484375,-19.4503816794,-5.61832061069,2.96946564885
5.54063153267,0.003173828125,-0.7490234375,0.415771484375,-29.679389313,3.6106870229,3.86259541985
5.55962347984,-0.014892578125,-0.771728515625,0.42236328125,-38.1984732824,12.0610687023,0.793893129771
5.57813239098,0.0068359375,-0.76416015625,0.46630859375,-48.213740458,15.6946564885,0.549618320611
5.59659433365,0.03466796875,-0.74267578125,0.59326171875,-48.786259542,8.68702290076,3.47328244275
5.61506724358,0.024169921875,-0.745361328125,0.55712890625,-42.1984732824,-3.46564885496,5.7786259542
5.63352537155,-0.014892578125,-0.779296875,0.397705078125,-38.9083969466,-3.68702290076,4.37404580153
5.65198349953,-0.008544921875,-0.79150390625,0.409912109375,-37.6641221374,-1.71755725191,5.32061068702
5.67047166824,-0.012451171875,-0.86474609375,0.41455078125,-46.0305343511,1.53435114504,3.77099236641
5.68893456459,-0.034423828125,-0.83447265625,0.33984375,-51.6870229008,10.7557251908,-3.87786259542
5.70739936829,-0.00146484375,-0.84619140625,0.419189453125,-50.3282442748,13.320610687,-6.74809160305
5.72586035728,0.009521484375,-0.763427734375,0.451171875,-44.0687022901,8.16030534351,-3.48854961832
5.74433135986,0.02685546875,-0.774169921875,0.4345703125,-38.2977099237,0.145038167939,2.37404580153
5.76278233528,-0.001953125,-0.781005859375,0.359130859375,-36.1221374046,-0.801526717557,5.79389312977
5.78126430511,-0.002197265625,-0.821044921875,0.327880859375,-30.8320610687,2.64122137405,6.00763358779
5.79969120026,-0.00048828125,-0.91064453125,0.35498046875,-27.6335877863,4.89312977099,1.97709923664
5.81815123558,-0.0107421875,-0.88623046875,0.34228515625,-27.213740458,4.42748091603,-1.26717557252
5.83661007881,-0.00537109375,-0.86865234375,0.37744140625,-19.9541984733,1.43511450382,-3.82442748092
5.85506701469,-0.00634765625,-0.798583984375,0.33837890625,-17.9770992366,1.51145038168,-0.984732824427
5.87354183197,-0.009033203125,-0.84619140625,0.3369140625,-12.786259542,0.480916030534,0.229007633588
5.8919968605,0.00439453125,-0.837646484375,0.395751953125,-9.4427480916,-5.80916030534,2.93893129771
5.91045379639,-0.011474609375,-0.88330078125,0.2998046875,-6.57251908397,-3.93893129771,2.21374045802
5.92890667915,-0.015869140625,-0.933349609375,0.25830078125,-12.465648855,1.09923664122,-1.6106870229
5.94736671448,-0.025146484375,-0.8603515625,0.24072265625,-13.8778625954,7.81679389313,-1.45801526718
5.96582579613,-0.02587890625,-0.86328125,0.2724609375,-21.0610687023,9.27480916031,-0.496183206107
5.98431491852,0.014892578125,-0.896240234375,0.38232421875,-17.7404580153,4.54961832061,-3.61832061069
6.00275993347,-0.010498046875,-0.904296875,0.389404296875,-15.6183206107,2.09160305344,-6.0534351145
6.02121186256,-0.008544921875,-0.850341796875,0.331787109375,-12.8320610687,-0.297709923664,-4.76335877863
6.03978085518,-0.01904296875,-0.888427734375,0.263427734375,-11.6946564885,1.06870229008,-3.35114503817
6.05827474594,-0.014892578125,-0.930908203125,0.276123046875,-10.6488549618,3.74045801527,-5.10687022901
6.07675457001,-0.001220703125,-0.87744140625,0.326904296875,-9.12213740458,5.97709923664,-4.99236641221
6.09521150589,0.00341796875,-0.869384765625,0.33935546875,-9.87022900763,2.3893129771,-4.67938931298
6.11366343498,0.001953125,-0.875244140625,0.337158203125,-11.786259542,-2.48091603053,-4.25190839695
6.1321144104,-0.001953125,-0.845458984375,0.3349609375,-8.18320610687,-5.99236641221,-2.0534351145
6.15056538582,-0.01171875,-0.90771484375,0.238525390625,-3.74045801527,-5.67938931298,-1.99236641221
6.16901946068,-0.026123046875,-0.8974609375,0.227294921875,-15.7251908397,1.19847328244,-2.12213740458
6.18749642372,-0.009033203125,-0.86083984375,0.296142578125,-12.2900763359,3.56488549618,0.167938931298
6.20595526695,0.00146484375,-0.8994140625,0.286865234375,-10.2748091603,1.51908396947,-1.9465648855
6.22441530228,-0.002685546875,-0.8583984375,0.27099609375,-5.87786259542,-0.0381679389313,1.02290076336
6.242862463,0.004150390625,-0.914306640625,0.3115234375,-7.63358778626,-2.99236641221,-0.198473282443
6.26131844521,0.027587890625,-0.887451171875,0.2001953125,-10.4885496183,-1.85496183206,-0.312977099237
6.27979254723,-0.00830078125,-0.921142578125,0.26416015625,-17.1679389313,1.03053435115,-0.763358778626
6.29824757576,-0.006591796875,-0.898193359375,0.27880859375,-12.6946564885,1.45038167939,-1.45801526718
6.31670856476,0.00390625,-0.89599609375,0.307373046875,-4.93893129771,-1.9465648855,-1.02290076336
6.33516168594,-0.004150390625,-0.917724609375,0.277587890625,-3.29007633588,-2.32061068702,-0.603053435115
6.35361266136,-0.02099609375,-0.900390625,0.216796875,-11.4198473282,0.63358778626,-0.114503816794
6.3720676899,-0.0087890625,-0.87939453125,0.2255859375,-14.4198473282,1.64122137405,2.39694656489
6.39054775238,-0.002197265625,-0.902587890625,0.266357421875,-14.7175572519,-1.13740458015,1.48091603053
6.40900373459,0.015380859375,-0.9501953125,0.2734375,-4.3893129771,-2.81679389313,-0.809160305344
6.42746376991,-0.007080078125,-0.945556640625,0.23193359375,0.427480916031,-2.32061068702,-2.75572519084
6.44592285156,-0.01416015625,-0.92138671875,0.175048828125,-4.47328244275,2.56488549618,-3.06870229008
6.46438765526,0.00146484375,-0.91064453125,0.2744140625,-7.10687022901,2.31297709924,-3.45801526718
6.482837677,0.000244140625,-0.918701171875,0.272216796875,-6.53435114504,0.274809160305,-5.79389312977
6.50131487846,-0.01171875,-0.862548828125,0.239501953125,-6.01526717557,0.160305343511,-0.030534351145
6.51976799965,-0.0068359375,-0.9150390625,0.192138671875,-8.25954198473,0.458015267176,-0.671755725191
6.53822207451,-0.009521484375,-0.899658203125,0.255126953125,-9.51908396947,0.328244274809,1.37404580153
6.55668187141,0.00634765625,-0.91796875,0.26953125,-8.50381679389,-3.35114503817,1.47328244275
6.57514286041,-0.00390625,-0.90673828125,0.22802734375,0.435114503817,-2.6106870229,1.87022900763
6.59362077713,-0.00927734375,-0.934326171875,0.205078125,0.0763358778626,0.30534351145,-1.45038167939
6.6120827198,-0.001708984375,-0.88037109375,0.238037109375,-2.7786259542,-1.75572519084,1.29007633588
6.63054656982,-0.000732421875,-0.931640625,0.21337890625,-0.648854961832,1.06106870229,1.7786259542
6.6490085125,0.004638671875,-0.97265625,0.25634765625,-1.96183206107,-2.43511450382,-0.00763358778626
6.66747832298,-0.004638671875,-0.913330078125,0.233642578125,6.0534351145,-2.08396946565,-2.69465648855
6.6859433651,-0.00390625,-0.93701171875,0.21875,15.1221374046,-1.02290076336,-4.51145038168
6.7044365406,-0.015380859375,-0.966796875,0.268310546875,24.6335877863,-2.63358778626,-9.35114503817
6.72289347649,0.001953125,-0.966796875,0.26318359375,37.6030534351,-3.34351145038,-11.0839694656
6.74135041237,0.00146484375,-1.00390625,0.275146484375,59.7480916031,-1.19083969466,-15.9694656489
6.75980639458,0.00341796875,-0.92431640625,0.29296875,109.549618321,2.9465648855,-18.2442748092
6.77826428413,0.008056640625,-0.844482421875,0.285400390625,153.061068702,4.34351145038,-10.2519083969
6.79680109024,0.00732421875,-0.761474609375,0.285400390625,195.053435115,4.79389312977,1.16030534351
6.81528925896,-0.008544921875,-0.769287109375,0.3935546875,217.786259542,2.19847328244,2.97709923664
6.83374738693,-0.01220703125,-0.78564453125,0.477783203125,168.549618321,-8.36641221374,-6.64122137405
6.85220551491,0.029296875,-0.74365234375,0.522705078125,156.854961832,0.717557251908,-9.73282442748
6.87066459656,0.017578125,-0.683349609375,0.591552734375,114.221374046,1.65648854962,-10.427480916
6.88912272453,0.020751953125,-0.662353515625,0.588134765625,84.4885496183,-0.374045801527,-10.2900763359
6.90760779381,0.03173828125,-0.6337890625,0.588134765625,82.8549618321,-3.32824427481,-7.84732824427
6.92607474327,0.0458984375,-0.6474609375,0.64453125,108.58778626,-5.63358778626,-11.0381679389
6.94454360008,0.044921875,-0.624267578125,0.6845703125,151.282442748,-6.2213740458,-7.70992366412
6.96299648285,0.036376953125,-0.440673828125,0.705810546875,138.389312977,-11.3129770992,-1.45801526718
6.98145532608,0.016357421875,-0.476806640625,0.699951171875,143.480916031,-14.9847328244,2.93129770992
6.99991440773,0.020751953125,-0.483642578125,0.694091796875,131.122137405,-12.4732824427,5.58015267176
7.01839351654,0.027587890625,-0.5478515625,0.7265625,21.9236641221,-11.8778625954,1.11450381679
7.03685832024,0.02294921875,-0.513427734375,0.678466796875,37.427480916,-9.87786259542,-0.603053435115
7.05537843704,0.021484375,-0.52734375,0.686767578125,46.2900763359,-8.54198473282,-8.01526717557
7.0738363266,0.038330078125,-0.420654296875,0.722900390625,57.9083969466,-8.57251908397,-10.641221374
7.09229230881,0.049560546875,-0.396240234375,0.76611328125,61.6717557252,-9.34351145038,-11.6641221374
7.11075425148,0.053466796875,-0.350341796875,0.791259765625,97.0610687023,-13.679389313,-7.71755725191
7.12923526764,0.059326171875,-0.394287109375,0.76416015625,75.1679389313,-14.893129771,-4.12213740458
7.14769935608,0.030029296875,-0.366943359375,0.728759765625,89.7709923664,-12.9083969466,-9.22900763359
7.16616034508,0.0595703125,-0.34716796875,0.75830078125,47.8320610687,-7.1679389313,-3.84732824427
7.18462848663,0.076904296875,-0.301513671875,0.823486328125,18.213740458,-4.30534351145,-4.79389312977
7.20308566093,0.066162109375,-0.263671875,0.785400390625,30.8549618321,-4.65648854962,-2.77099236641
7.22156381607,0.08203125,-0.2119140625,0.8388671875,43.2900763359,-8.91603053435,2.41984732824
7.24002385139,0.063720703125,-0.296875,0.84423828125,69.0534351145,-12.8244274809,-1.22900763359
7.25847768784,0.070556640625,-0.280517578125,0.820068359375,89.1908396947,-15.9389312977,-4.57251908397
7.27693963051,0.065185546875,-0.26611328125,0.82421875,108.221374046,-17.8091603053,-7.84732824427
7.2953877449,0.075439453125,-0.2939453125,0.777587890625,57.1755725191,-9.48091603053,-6.25954198473
7.31389594078,0.06591796875,-0.225830078125,0.74462890625,27.1374045802,-1.77099236641,-3.50381679389
7.33239388466,0.108642578125,-0.20849609375,0.85595703125,12.8015267176,-2.52671755725,1.6641221374
7.35086083412,0.10888671875,-0.13671875,0.847412109375,14.1526717557,-6.70992366412,5.70992366412
7.36931872368,0.10205078125,-0.130859375,0.832763671875,34.0,-10.1221374046,8.31297709924
7.38778066635,0.104736328125,-0.123046875,0.813232421875,31.5954198473,-9.93129770992,10.4045801527
7.40674757957,0.10107421875,-0.12060546875,0.822021484375,46.0381679389,-9.50381679389,10.6259541985
7.4252345562,0.084228515625,-0.155517578125,0.816650390625,72.9312977099,-11.534351145,1.09160305344
7.44364953041,0.088623046875,-0.11376953125,0.784423828125,96.4045801527,-7.03053435115,-6.90839694656
7.46212148666,0.051513671875,-0.093505859375,0.770751953125,78.3664122137,0.832061068702,-6.95419847328
7.48058152199,0.095703125,0.00390625,0.87060546875,45.8702290076,-5.53435114504,-3.32061068702
7.4990644455,0.106689453125,-0.02880859375,0.802001953125,4.91603053435,-2.65648854962,3.90839694656
7.51750540733,0.114013671875,0.0341796875,0.827880859375,-14.8702290076,3.60305343511,15.0305343511
7.53600645065,0.08984375,-0.006591796875,0.848876953125,-14.9083969466,4.31297709924,9.5572519084
7.55460047722,0.1123046875,-0.030517578125,0.9150390625,2.80152671756,-2.49618320611,7.96183206107
7.57306551933,0.102294921875,-0.01025390625,0.8935546875,24.8702290076,-7.73282442748,7.72519083969
7.59152245522,0.122314453125,0.04736328125,0.837646484375,12.8854961832,-9.61832061069,10.2519083969
7.60999250412,0.106689453125,-0.025634765625,0.8017578125,20.8396946565,-3.67938931298,7.08396946565
7.62848353386,0.113037109375,-0.04296875,0.837646484375,16.6030534351,-4.73282442748,3.63358778626
7.64694952965,0.11376953125,-0.0126953125,0.80810546875,13.8854961832,-2.27480916031,1.28244274809
7.66541671753,0.10986328125,-0.041748046875,0.825927734375,-20.3358778626,0.839694656489,3.5572519084
7.68387889862,0.095458984375,-0.027099609375,0.802001953125,-28.5419847328,2.09160305344,4.54198473282
7.70232987404,0.12451171875,0.0029296875,0.83447265625,-22.0458015267,4.2213740458,0.748091603053
7.72116875648,0.108642578125,0.00146484375,0.85546875,-5.74045801527,1.06106870229,0.992366412214
7.73960876465,0.113525390625,-0.004150390625,0.8544921875,3.98473282443,-0.267175572519,1.40458015267
7.75806379318,0.111328125,-0.03369140625,0.846435546875,-9.70229007634,0.625954198473,-0.167938931298
7.77650880814,0.111083984375,-0.013671875,0.8330078125,0.389312977099,-0.534351145038,-0.587786259542
7.79497480392,0.113525390625,0.008056640625,0.8369140625,9.08396946565,-1.67938931298,0.190839694656
7.81342983246,0.1171875,-0.006103515625,0.850341796875,1.89312977099,-0.885496183206,1.54198473282
7.83190774918,0.117431640625,-0.04296875,0.86572265625,3.71755725191,-3.17557251908,0.916030534351
7.85036873817,0.098876953125,-0.039794921875,0.80859375,1.70992366412,-0.793893129771,-0.87786259542
7.8688249588,0.1015625,-0.053466796875,0.820556640625,2.41984732824,-0.36641221374,-2.3358778626
7.88728404045,0.1044921875,-0.030517578125,0.83935546875,10.5496183206,-0.12213740458,-3.51908396947
7.90574717522,0.11376953125,-0.008056640625,0.844970703125,6.19847328244,0.0,-1.31297709924
7.9242143631,0.1123046875,0.014404296875,0.830078125,-1.91603053435,0.839694656489,0.541984732824
7.94269132614,0.124267578125,0.006591796875,0.839111328125,-3.0,1.63358778626,1.53435114504
7.96114635468,0.10888671875,-0.00830078125,0.86181640625,-5.74809160305,1.49618320611,1.93893129771
7.97960138321,0.1064453125,-0.031494140625,0.86669921875,-4.25954198473,0.473282442748,1.81679389313
7.99806332588,0.103759765625,-0.02734375,0.833984375,-6.30534351145,-0.664122137405,6.50381679389
8.01655435562,0.094482421875,0.030517578125,0.837890625,-2.49618320611,-0.0381679389313,4.28244274809
8.0350112915,0.09521484375,-0.044189453125,0.816650390625,-0.793893129771,-0.374045801527,3.64122137405
8.0534632206,0.1083984375,-0.012939453125,0.8505859375,-1.93893129771,0.0381679389313,2.88549618321
8.07191824913,0.099609375,-0.029541015625,0.8115234375,-1.58778625954,0.656488549618,2.41984732824
8.09037613869,0.109130859375,-0.03662109375,0.8515625,5.69465648855,0.152671755725,2.24427480916
8.10883498192,0.10791015625,-0.034912109375,0.863037109375,1.50381679389,-2.17557251908,-0.312977099237
8.12729501724,0.103759765625,-0.01904296875,0.821044921875,-6.03053435115,-1.88549618321,1.2213740458
8.14578413963,0.103515625,0.009521484375,0.836181640625,-0.24427480916,0.63358778626,-0.603053435115
8.16425228119,0.114990234375,0.015380859375,0.84326171875,-3.49618320611,0.0152671755725,1.34351145038
8.18270230293,0.10595703125,-0.01025390625,0.828125,-1.26717557252,-0.328244274809,1.27480916031
8.20115423203,0.101806640625,-0.0263671875,0.840576171875,-1.18320610687,-0.977099236641,0.610687022901
8.21961021423,0.098876953125,-0.04638671875,0.8369140625,0.259541984733,-0.267175572519,-0.24427480916
8.23808717728,0.1015625,-0.001220703125,0.831298828125,5.70229007634,-0.0992366412214,0.190839694656
8.25654816628,0.10595703125,-0.000732421875,0.83740234375,5.37404580153,0.770992366412,1.8320610687
8.2750082016,0.10595703125,-0.0126953125,0.798095703125,-0.961832061069,3.16030534351,2.42748091603
8.29346203804,0.10107421875,-0.0205078125,0.8544921875,0.328244274809,2.6641221374,2.59541984733
8.31200003624,0.104248046875,-0.0185546875,0.849365234375,-0.236641221374,1.89312977099,2.34351145038
8.33045697212,0.088134765625,-0.0419921875,0.833251953125,-4.7786259542,3.34351145038,1.70229007634
8.34894394875,0.092041015625,-0.046630859375,0.7978515625,-5.75572519084,7.72519083969,0.870229007634
8.36740207672,0.081298828125,-0.00634765625,0.843017578125,0.198473282443,7.67938931298,1.51908396947
8.38586211205,0.06689453125,0.002197265625,0.825927734375,10.2519083969,11.3816793893,4.39694656489
8.40432405472,0.05810546875,-0.134033203125,0.8076171875,10.7099236641,15.572519084,9.67175572519
8.42277288437,0.106201171875,0.033203125,0.82666015625,2.12977099237,20.9083969466,15.3511450382
8.44125103951,0.09619140625,-0.011962890625,0.866455078125,-0.870229007634,21.5419847328,10.9312977099
8.45970916748,0.089599609375,-0.05712890625,0.78515625,2.89312977099,24.6335877863,6.46564885496
8.47818517685,0.0849609375,-0.02392578125,0.8642578125,-2.15267175573,24.4732824427,7.78625954198
8.49664211273,0.07421875,-0.011962890625,0.853759765625,-3.1679389313,23.9541984733,8.28244274809
8.51510310173,0.05517578125,0.003173828125,0.81005859375,-8.0534351145,24.5114503817,8.16030534351
8.53356409073,0.056396484375,-0.003662109375,0.79150390625,2.3893129771,27.6183206107,8.07633587786
8.55204200745,0.0390625,0.047607421875,0.71875,-2.63358778626,38.6946564885,19.2213740458
8.570499897,0.01611328125,0.00927734375,0.72412109375,-4.98473282443,52.1145038168,20.1603053435
8.58901977539,0.0302734375,-0.04443359375,1.0283203125,-13.4580152672,47.9312977099,10.7938931298
8.60746073723,-0.00927734375,-0.01806640625,1.01049804688,-22.7557251908,36.4885496183,5.04580152672
8.62589168549,-0.040283203125,-0.0087890625,0.8837890625,-19.7251908397,36.8702290076,5.20610687023
8.64441561699,-0.0625,-0.03515625,0.83251953125,-21.5114503817,34.9160305344,4.93893129771
8.66286969185,-0.0361328125,0.138916015625,0.579833984375,3.6641221374,41.1297709924,0.206106870229
8.68131971359,-0.071044921875,0.058837890625,0.6611328125,1.5572519084,50.0,7.67175572519
8.69977068901,-0.080322265625,-0.109375,0.86181640625,0.63358778626,56.2213740458,1.3358778626
8.7182226181,-0.09375,-0.07568359375,0.862060546875,10.8473282443,47.8320610687,-2.41984732824
8.73667764664,-0.10498046875,-0.010009765625,0.73291015625,-7.9465648855,49.4580152672,-2.14503816794
8.7551677227,-0.08203125,-0.0263671875,0.726806640625,-21.1450381679,50.9541984733,5.80916030534
8.77366471291,-0.10595703125,-0.06591796875,0.86376953125,-18.5877862595,54.8778625954,2.31297709924
8.79212284088,-0.098876953125,0.0087890625,0.931884765625,-10.7099236641,40.3893129771,7.67175572519
8.81058287621,-0.168701171875,-0.01708984375,0.77734375,1.97709923664,41.7175572519,3.29770992366
8.82903790474,-0.181640625,0.03759765625,0.6689453125,-11.4427480916,50.7633587786,10.0229007634
8.84751701355,-0.197021484375,-0.04248046875,0.83935546875,-5.59541984733,52.7557251908,9.35877862595
8.86597704887,-0.203857421875,-0.01220703125,0.88916015625,7.8320610687,43.8702290076,5.54961832061
8.88443493843,-0.3310546875,-0.20361328125,0.873291015625,5.81679389313,40.1450381679,5.93893129771
8.90288996696,-0.25830078125,-0.001953125,0.72802734375,13.641221374,44.5877862595,2.03053435115
8.92134594917,-0.2509765625,-0.00830078125,0.722412109375,1.61832061069,51.4198473282,5.52671755725
8.93980503082,-0.266845703125,-0.00830078125,0.784423828125,4.42748091603,46.1450381679,6.43511450382
8.9582901001,-0.298828125,0.058837890625,0.7724609375,16.2900763359,45.0992366412,12.5877862595
8.97674822807,-0.325439453125,-0.024658203125,0.762451171875,19.8854961832,42.0305343511,6.04580152672
8.9952082634,-0.3154296875,-0.006591796875,0.7412109375,12.8625954198,39.320610687,4.92366412214
9.01367235184,-0.3427734375,-0.061767578125,0.746826171875,4.32824427481,39.3358778626,4.13740458015
9.03212237358,-0.361572265625,-0.08837890625,0.7021484375,10.1297709924,35.358778626,-2.77099236641
9.05060243607,-0.3740234375,-0.037353515625,0.561767578125,4.97709923664,41.2061068702,-4.23664122137
9.06914448738,-0.354736328125,0.062255859375,0.639404296875,-3.28244274809,49.9160305344,1.49618320611
9.08760857582,-0.36669921875,0.02685546875,0.719970703125,-5.76335877863,49.5496183206,3.64885496183
9.10606646538,-0.367431640625,0.0146484375,0.75732421875,-2.96183206107,38.6564885496,0.36641221374
9.12452840805,-0.41259765625,-0.02734375,0.60888671875,14.7175572519,38.4427480916,-2.19847328244
9.14298343658,-0.432373046875,-0.0595703125,0.6171875,10.6183206107,43.8320610687,-5.25190839695
9.16147065163,-0.419677734375,-0.03369140625,0.6435546875,6.03053435115,43.1145038168,-6.6641221374
9.17993164062,-0.422607421875,0.04296875,0.61474609375,-1.96183206107,43.0305343511,-2.35877862595
9.19843459129,-0.447509765625,0.02001953125,0.578369140625,4.06106870229,47.6259541985,-0.30534351145
9.21690058708,-0.455322265625,-0.02978515625,0.65869140625,1.48854961832,49.9847328244,-0.732824427481
9.23536252975,-0.4609375,-0.010009765625,0.804443359375,-15.9618320611,38.5572519084,-1.5572519084
9.25436258316,-0.493896484375,0.0283203125,0.640869140625,-16.8778625954,33.1832061069,-0.18320610687
9.27279877663,-0.561767578125,-0.13134765625,0.587158203125,-9.65648854962,36.6106870229,-1.20610687023
9.29121780396,-0.54345703125,0.0029296875,0.66455078125,-0.335877862595,29.8091603053,-10.1984732824
9.30968475342,-0.532958984375,0.000732421875,0.538818359375,2.54198473282,31.7557251908,-11.4122137405
9.32814574242,-0.52001953125,0.02197265625,0.477783203125,-6.32061068702,38.5114503817,-7.60305343511
9.34667873383,-0.51611328125,0.004638671875,0.51708984375,-3.43511450382,42.5877862595,-5.74045801527
9.36510872841,-0.503662109375,-0.011962890625,0.592041015625,0.435114503817,41.5801526718,-1.18320610687
9.38358068466,-0.526611328125,-0.033935546875,0.539306640625,0.969465648855,41.6030534351,0.0229007633588
9.40203976631,-0.55029296875,-0.082763671875,0.527587890625,-0.458015267176,44.1374045802,-0.572519083969
9.42049980164,-0.571533203125,-0.122314453125,0.594970703125,-5.03053435115,46.7099236641,-3.64122137405
9.4389667511,-0.57275390625,-0.05517578125,0.59423828125,-5.39694656489,35.6564885496,-5.58015267176
9.45742869377,-0.603759765625,-0.0380859375,0.458984375,-6.74809160305,35.8625954198,-4.11450381679
9.4759247303,-0.63525390625,-0.058837890625,0.415283203125,-1.23664122137,40.534351145,-5.2213740458
9.49439167976,-0.62255859375,-0.046875,0.49267578125,-0.145038167939,39.1679389313,-5.88549618321
9.51285052299,-0.6298828125,0.016357421875,0.486572265625,-1.1679389313,35.7099236641,-5.16030534351
9.53130865097,-0.627197265625,0.00048828125,0.47314453125,-3.67175572519,33.2824427481,-3.41984732824
9.54978084564,-0.639892578125,0.001708984375,0.44384765625,5.54961832061,36.0076335878,-1.22900763359
9.56849694252,-0.633056640625,-0.073974609375,0.49365234375,4.29007633588,33.9618320611,-2.59541984733
9.58694982529,-0.670654296875,-0.0517578125,0.396240234375,-1.56488549618,35.3893129771,-2.06870229008
9.60538482666,-0.64111328125,-0.059326171875,0.392822265625,-1.88549618321,38.0687022901,-0.603053435115
9.62384486198,-0.642822265625,-0.079833984375,0.419677734375,7.78625954198,40.9083969466,-1.90076335878
9.64229273796,-0.65966796875,-0.079833984375,0.466796875,5.3893129771,39.0381679389,-4.09923664122
9.66074371338,-0.667724609375,-0.084716796875,0.4404296875,1.61832061069,32.9007633588,-6.17557251908
9.67922663689,-0.67431640625,-0.0966796875,0.4677734375,-3.40458015267,30.9770992366,-8.37404580153
9.69767951965,-0.697265625,-0.08740234375,0.464599609375,1.90839694656,22.8244274809,-12.5267175573
9.71613454819,-0.699951171875,-0.049560546875,0.38916015625,-10.679389313,22.5038167939,-17.0
9.73460173607,-0.68994140625,0.023193359375,0.34765625,-11.1679389313,21.9236641221,-12.6183206107
9.75306081772,-0.68115234375,0.052001953125,0.273681640625,-64.320610687,35.2595419847,-13.3740458015
9.7715408802,-0.69873046875,0.08740234375,0.4638671875,-6.21374045802,18.3893129771,1.93129770992
9.79000377655,-0.672607421875,-0.036376953125,0.4140625,-0.610687022901,15.3282442748,1.91603053435
9.80856180191,-0.7041015625,-0.0361328125,0.354736328125,-4.41221374046,14.0458015267,-0.24427480916
9.82702493668,-0.70703125,-0.05126953125,0.359130859375,-4.78625954198,11.1984732824,-1.54961832061
9.84549093246,-0.72119140625,-0.0654296875,0.436767578125,-18.7251908397,4.60305343511,-2.32824427481
9.86395406723,-0.736083984375,-0.14599609375,0.365478515625,-1.51908396947,-1.12213740458,-1.17557251908
9.88243818283,-0.7041015625,-0.045654296875,0.251220703125,-0.992366412214,2.01526717557,-0.625954198473
9.90090036392,-0.69287109375,-0.035888671875,0.25390625,-2.59541984733,9.98473282443,0.450381679389
9.91936826706,-0.682373046875,-0.048095703125,0.35400390625,-3.80916030534,9.23664122137,2.04580152672
9.93782830238,-0.705322265625,-0.1025390625,0.375732421875,-6.19847328244,5.24427480916,0.969465648855
9.95629143715,-0.710693359375,-0.10009765625,0.38232421875,-8.23664122137,-0.328244274809,0.625954198473
9.97477650642,-0.716552734375,-0.082275390625,0.36572265625,-10.7709923664,-5.54961832061,-0.404580152672
9.99323534966,-0.720458984375,-0.110595703125,0.28662109375,-3.32824427481,-6.12977099237,-4.50381679389
10.0116963387,-0.7080078125,-0.1103515625,0.302734375,0.503816793893,-4.32061068702,-5.98473282443
10.0301573277,-0.700439453125,-0.079833984375,0.333740234375,-2.54198473282,-1.49618320611,-5.60305343511
10.0486204624,-0.69580078125,-0.08203125,0.364990234375,3.74045801527,-4.51908396947,-4.85496183206
10.0671005249,-0.692138671875,-0.053955078125,0.345703125,-6.56488549618,-3.5572519084,0.687022900763
10.0855894089,-0.704833984375,-0.07861328125,0.32080078125,2.78625954198,-3.42748091603,1.6106870229
10.1040563583,-0.713623046875,-0.075927734375,0.3037109375,4.07633587786,-1.22900763359,3.48091603053
10.1225132942,-0.72998046875,-0.110595703125,0.34912109375,-1.23664122137,-2.32061068702,2.89312977099
10.1409723759,-0.73193359375,-0.093994140625,0.409423828125,-1.48091603053,-5.86259541985,1.40458015267
10.1594383717,-0.72119140625,-0.062744140625,0.37646484375,-1.74045801527,-8.34351145038,1.07633587786
10.177999258,-0.728515625,-0.049560546875,0.3671875,5.0534351145,-10.1908396947,0.732824427481
10.1964461803,-0.71240234375,-0.052734375,0.388916015625,1.06106870229,-13.6870229008,1.61832061069
10.2148783207,-0.70654296875,-0.037353515625,0.36279296875,-4.54198473282,-15.4885496183,2.04580152672
10.2333424091,-0.688232421875,-0.059326171875,0.37060546875,2.21374045802,-18.0381679389,3.95419847328
10.2517974377,-0.70849609375,-0.106201171875,0.4052734375,2.76335877863,-20.1221374046,3.42748091603
10.2702496052,-0.697509765625,-0.10107421875,0.392578125,5.74045801527,-24.0229007634,0.572519083969
10.2887256145,-0.69677734375,-0.07421875,0.369384765625,3.32061068702,-25.8091603053,0.0458015267176
10.3071796894,-0.69384765625,-0.053955078125,0.37353515625,0.129770992366,-25.7251908397,4.32824427481
10.3256378174,-0.690185546875,-0.0908203125,0.388427734375,4.80152671756,-29.4427480916,4.67175572519
10.3440918922,-0.678466796875,-0.099365234375,0.4384765625,-1.35877862595,-31.7557251908,3.74809160305
10.3625428677,-0.677978515625,-0.1259765625,0.487060546875,0.030534351145,-38.7557251908,0.656488549618
10.3809969425,-0.677490234375,-0.0986328125,0.438720703125,0.786259541985,-45.2213740458,-0.625954198473
10.3994779587,-0.658935546875,-0.101806640625,0.347900390625,-0.175572519084,-40.3816793893,-3.09160305344
10.4179339409,-0.67041015625,-0.06298828125,0.373779296875,1.70992366412,-39.1908396947,-3.25190839695
10.436396122,-0.6298828125,-0.015625,0.43408203125,3.18320610687,-37.8015267176,2.28244274809
10.4548592567,-0.611572265625,-0.01611328125,0.49951171875,1.5572519084,-41.4122137405,6.18320610687
10.4733202457,-0.6044921875,-0.05224609375,0.500732421875,3.35114503817,-44.8625954198,7.68702290076
10.4917891026,-0.611083984375,-0.136962890625,0.5107421875,11.9236641221,-50.2366412214,-4.79389312977
10.5102441311,-0.6416015625,-0.1025390625,0.32568359375,25.3511450382,-36.2671755725,-12.4809160305
10.5286979675,-0.584716796875,-0.031005859375,0.4609375,0.656488549618,-29.5496183206,-9.79389312977
10.547162056,-0.561279296875,0.02392578125,0.7138671875,-9.74809160305,-39.2900763359,-4.69465648855
10.5657131672,-0.570068359375,-0.059814453125,0.7998046875,-19.3053435115,-54.106870229,-2.26717557252
10.584182024,-0.57568359375,-0.05908203125,0.8115234375,-16.7480916031,-84.534351145,-7.03816793893
10.6026620865,-0.584716796875,0.04052734375,0.306640625,6.84732824427,-76.7251908397,-4.59541984733
10.6211190224,-0.505126953125,0.053955078125,0.3671875,-23.358778626,-53.9083969466,4.91603053435
10.6395769119,-0.460693359375,-0.0009765625,0.671630859375,-33.6717557252,-54.9312977099,12.6106870229
10.6580297947,-0.446533203125,-0.07568359375,0.75732421875,-14.9847328244,-75.3053435115,6.52671755725
10.6764888763,-0.461181640625,-0.052001953125,0.697509765625,-5.23664122137,-89.3664122137,5.53435114504
10.6949689388,-0.499267578125,-0.087646484375,0.488037109375,0.358778625954,-76.3053435115,-0.0381679389313
10.7134327888,-0.455078125,-0.167724609375,0.660400390625,-7.37404580153,-71.8549618321,5.80916030534
10.7318897247,-0.45361328125,-0.1787109375,0.7314453125,-20.7328244275,-68.1832061069,1.03053435115
10.7503507137,-0.435546875,-0.111083984375,0.80615234375,-25.3969465649,-80.0076335878,-3.6641221374
10.7688126564,-0.434326171875,-0.068603515625,0.712890625,-16.8015267176,-80.7022900763,-3.13740458015
10.7872745991,-0.453125,-0.08837890625,0.528076171875,-13.0,-71.3358778626,-9.77099236641
10.8057675362,-0.396484375,-0.142333984375,0.57666015625,-12.8625954198,-57.7557251908,-9.81679389313
10.8241903782,-0.35107421875,-0.1689453125,0.6943359375,-15.213740458,-43.8320610687,-15.106870229
10.8426513672,-0.31689453125,-0.149169921875,0.902099609375,-9.0534351145,-60.7480916031,-21.4961832061
10.8611114025,-0.32275390625,-0.209716796875,0.8642578125,3.59541984733,-69.358778626,-28.4580152672
10.879578352,-0.334228515625,0.0244140625,0.531982421875,11.3282442748,-59.213740458,-25.6946564885
10.8980953693,-0.251953125,-0.034912109375,0.648681640625,1.95419847328,-39.0076335878,-17.7404580153
10.9165623188,-0.21435546875,0.0224609375,0.777587890625,12.7786259542,-39.1374045802,-13.4885496183
10.9350273609,-0.174072265625,0.02099609375,0.879150390625,22.3816793893,-50.0763358779,-5.20610687023
10.9534943104,-0.189208984375,-0.067138671875,0.94091796875,38.9618320611,-66.534351145,-5.43511450382
10.9719443321,-0.22265625,-0.174560546875,0.685302734375,14.2290076336,-68.2213740458,-11.5114503817
10.9904031754,-0.222900390625,-0.127685546875,0.589599609375,3.95419847328,-46.0916030534,-14.0992366412
11.0088860989,-0.16015625,-0.025390625,0.792724609375,5.84732824427,-33.8320610687,-9.92366412214
11.0273461342,-0.123046875,-0.029052734375,0.992431640625,4.07633587786,-58.4045801527,-3.25190839695
11.0458102226,-0.14111328125,-0.0673828125,0.951416015625,4.59541984733,-60.7709923664,-1.54198473282
11.0642712116,-0.149658203125,-0.12890625,0.946044921875,-5.28244274809,-80.8091603053,-7.65648854962
11.0827271938,-0.153076171875,-0.173828125,0.649658203125,-20.427480916,-73.534351145,-19.0381679389
11.1017262936,-0.101806640625,-0.00146484375,0.541015625,-1.91603053435,-48.641221374,-6.93129770992
11.1201722622,-0.061279296875,0.026123046875,0.693359375,8.54198473282,-41.0534351145,2.54198473282
11.1386094093,0.003173828125,-0.015380859375,0.89111328125,19.679389313,-41.2519083969,9.03816793893
11.1570754051,-0.0185546875,-0.0791015625,0.793701171875,24.9160305344,-46.1221374046,11.1374045802
11.1755404472,-0.025146484375,-0.1748046875,0.678466796875,10.0381679389,-33.1908396947,6.53435114504
11.1939594746,-0.002685546875,-0.0732421875,0.59033203125,-1.06870229008,-11.893129771,3.69465648855
11.2123644352,0.049072265625,-0.0322265625,0.819091796875,1.62595419847,-2.85496183206,5.97709923664
11.2307794094,0.025146484375,-0.091796875,0.94873046875,1.73282442748,-5.20610687023,5.96946564885
11.2492384911,-0.009521484375,-0.1005859375,0.92724609375,-1.06870229008,-13.5801526718,4.27480916031
11.2676935196,-0.018310546875,-0.1005859375,0.87548828125,3.19847328244,-8.82442748092,4.62595419847
11.2861554623,-0.018310546875,-0.081298828125,0.8935546875,9.88549618321,-5.90839694656,0.374045801527
11.3099255562,-0.029541015625,-0.059814453125,0.851806640625,12.0687022901,-9.38167938931,-1.03053435115
11.3284163475,-0.01025390625,-0.04248046875,0.820068359375,10.2366412214,-2.69465648855,0.824427480916
11.3468773365,-0.001953125,-0.08349609375,0.888916015625,3.89312977099,-4.68702290076,0.725190839695
11.3653364182,-0.015380859375,-0.07470703125,0.831298828125,6.82442748092,-5.88549618321,-1.03053435115
11.3838324547,-0.03076171875,-0.06005859375,0.794921875,16.5648854962,-5.09160305344,-1.29007633588
11.4022874832,-0.007080078125,-0.060302734375,0.77783203125,19.679389313,0.557251908397,-1.04580152672
11.4207553864,0.00390625,-0.09521484375,0.82763671875,8.54961832061,2.90839694656,-0.900763358779
11.4391832352,0.02197265625,-0.08056640625,0.9228515625,2.07633587786,-7.86259541985,-2.32061068702
11.4576473236,0.00390625,-0.05517578125,0.809326171875,4.32061068702,-4.61832061069,-3.75572519084
11.4761064053,0.007568359375,-0.044189453125,0.767822265625,5.03053435115,-1.70992366412,-2.73282442748
11.4945611954,0.0205078125,-0.04296875,0.8525390625,2.58778625954,-2.5572519084,-1.06870229008
11.5130772591,0.009033203125,-0.04296875,0.830078125,0.526717557252,-1.36641221374,-1.47328244275
11.5315322876,0.001220703125,-0.04052734375,0.845947265625,3.96946564885,-2.17557251908,-2.43511450382
11.5499932766,0.0126953125,-0.041259765625,0.8544921875,2.2213740458,-3.15267175573,-2.83969465649
11.568444252,0.010986328125,-0.03076171875,0.831787109375,5.45038167939,-2.3893129771,-3.12977099237
11.5868952274,0.02197265625,-0.008544921875,0.85400390625,-1.46564885496,-2.99236641221,-1.87786259542
11.6053521633,0.026611328125,0.029052734375,0.771484375,-0.541984732824,-0.732824427481,0.81679389313
11.6238040924,0.024658203125,-0.018798828125,0.851806640625,3.58015267176,-0.740458015267,1.3893129771
11.6422541142,-0.001708984375,-0.07080078125,0.816650390625,-2.60305343511,-1.06106870229,-1.70992366412
11.6607022285,0.014892578125,-0.06201171875,0.856201171875,-2.78625954198,-1.59541984733,-3.41221374046
11.6791601181,0.0234375,-0.001220703125,0.801025390625,2.63358778626,-1.16030534351,-2.29770992366
11.6976120472,0.03564453125,-0.014404296875,0.854248046875,5.13740458015,-2.18320610687,0.0916030534351
11.7160880566,0.019287109375,-0.014404296875,0.803955078125,3.80916030534,-1.64122137405,0.931297709924
11.7345461845,0.029541015625,-0.048095703125,0.86474609375,0.763358778626,-4.38167938931,0.190839694656
11.753038168,0.003662109375,-0.023193359375,0.789306640625,6.23664122137,-3.70229007634,-0.404580152672
11.771484375,0.0458984375,-0.009765625,0.847900390625,3.50381679389,-3.38167938931,0.129770992366
11.7899634838,0.020751953125,-0.013427734375,0.836181640625,-0.137404580153,-4.64122137405,2.41984732824
11.8084113598,0.0224609375,-0.06494140625,0.88720703125,-3.85496183206,-6.7786259542,1.90839694656
11.8268861771,0.01953125,-0.00341796875,0.886962890625,1.67938931298,-10.8396946565,-0.442748091603
11.8453421593,0.017578125,-0.00927734375,0.8095703125,1.81679389313,-7.27480916031,-1.75572519084
11.8637912273,0.03759765625,-0.0048828125,0.869384765625,3.29770992366,-7.97709923664,-0.0839694656489
11.882237196,0.037841796875,-0.01904296875,0.8837890625,-2.74809160305,-10.0992366412,0.0763358778626
11.900686264,0.03515625,-0.01611328125,0.86669921875,-2.96946564885,-14.7175572519,0.274809160305
11.9191632271,0.033935546875,-0.03076171875,0.85205078125,-1.62595419847,-14.7099236641,3.75572519084
11.9376142025,0.03564453125,-0.052734375,0.8525390625,-4.56488549618,-16.6641221374,-0.770992366412
11.9560711384,0.05224609375,-0.02197265625,0.909423828125,-4.59541984733,-20.8167938931,-1.48854961832
11.9745299816,0.050048828125,0.004150390625,0.840087890625,-1.89312977099,-23.6717557252,-1.06870229008
11.9930150509,0.06591796875,-0.015625,0.8876953125,-0.290076335878,-26.9465648855,2.90076335878
12.011464119,0.084228515625,0.005126953125,0.90966796875,-4.2213740458,-27.4427480916,4.24427480916
12.0299360752,0.07958984375,0.031494140625,0.83154296875,3.56488549618,-37.8473282443,11.3053435115
12.0484712124,0.089599609375,-0.020751953125,0.769287109375,11.3740458015,-34.6183206107,11.1297709924
12.0669262409,0.10791015625,-0.04150390625,0.85888671875,2.80152671756,-31.2824427481,11.213740458
12.0853862762,0.10205078125,-0.05322265625,0.979736328125,-6.7786259542,-48.427480916,11.8015267176
12.1038341522,0.09033203125,-0.0966796875,0.748046875,-8.73282442748,-48.4351145038,1.38167938931
12.122284174,0.1220703125,-0.0185546875,0.810546875,-0.526717557252,-42.8320610687,-0.496183206107
12.1407601833,0.169921875,-0.0419921875,0.960205078125,-14.0763358779,-53.9312977099,2.69465648855
12.1592242718,0.143798828125,-0.02490234375,0.868896484375,-13.1984732824,-59.0229007634,8.63358778626
12.1776733398,0.140380859375,-0.047607421875,0.728759765625,8.96183206107,-53.7175572519,4.7786259542
12.1961293221,0.211181640625,-0.027587890625,0.978271484375,11.2213740458,-56.8778625954,6.82442748092
12.2145893574,0.23388671875,0.0380859375,0.906982421875,17.7175572519,-71.1755725191,17.9923664122
12.2330524921,0.23291015625,-0.00732421875,0.789794921875,13.0076335878,-67.3282442748,13.2061068702
12.2514555454,0.26123046875,-0.03369140625,0.8779296875,12.9236641221,-71.3435114504,13.5267175573
12.2699196339,0.272216796875,0.025390625,0.67431640625,15.4580152672,-62.7633587786,10.0610687023
12.2883815765,0.313720703125,0.0263671875,0.806884765625,15.465648855,-68.9694656489,13.4580152672
12.3068394661,0.35693359375,0.02978515625,0.786376953125,30.6946564885,-68.7251908397,12.5419847328
12.3252995014,0.35595703125,-0.027587890625,0.669921875,36.4045801527,-68.2748091603,13.8244274809
12.3437285423,0.389404296875,-0.07421875,0.84716796875,22.3816793893,-64.9770992366,5.71755725191
12.3621923923,0.395263671875,0.02880859375,0.753173828125,16.320610687,-54.7557251908,1.50381679389
12.3806493282,0.432373046875,0.02099609375,0.83984375,7.90076335878,-62.3053435115,3.96946564885
12.3991093636,0.409423828125,-0.0234375,0.77001953125,18.1755725191,-59.1221374046,3.24427480916
12.4175643921,0.42529296875,-0.080078125,0.84765625,6.74045801527,-55.0916030534,-1.41221374046
12.436050415,0.450439453125,0.00927734375,0.80078125,2.88549618321,-52.7786259542,-6.14503816794
12.4545192719,0.49169921875,0.06298828125,0.791259765625,2.15267175573,-56.3969465649,-1.03816793893
12.4729793072,0.502685546875,0.051513671875,0.8154296875,1.02290076336,-59.3816793893,0.541984732824
12.4914331436,0.520751953125,0.05859375,0.68115234375,-4.68702290076,-53.6717557252,2.26717557252
12.5098891258,0.54248046875,0.03466796875,0.8154296875,-2.39694656489,-55.7938931298,1.14503816794
12.5283463001,0.547607421875,0.05078125,0.783203125,4.25190839695,-56.8244274809,2.9465648855
12.5468394756,0.55029296875,0.052978515625,0.674560546875,6.32824427481,-51.8015267176,6.54961832061
12.5653104782,0.589111328125,0.042724609375,0.791259765625,10.0610687023,-59.1221374046,9.49618320611
12.5837674141,0.601806640625,0.073486328125,0.64404296875,9.74809160305,-56.9694656489,10.2366412214
12.60222435,0.606689453125,0.01708984375,0.616455078125,-2.15267175573,-45.3816793893,10.8015267176
12.6206822395,0.634033203125,0.030517578125,0.6923828125,-17.3893129771,-46.4809160305,9.09160305344
12.6391732693,0.650634765625,0.084716796875,0.6669921875,-5.90839694656,-44.8244274809,14.893129771
12.6576342583,0.69482421875,0.11083984375,0.73095703125,6.72519083969,-48.3435114504,16.0916030534
12.6760983467,0.65576171875,-0.139892578125,0.702392578125,7.59541984733,-51.9160305344,12.0763358779
12.6945581436,0.67724609375,0.014892578125,0.7138671875,-2.70992366412,-51.6870229008,15.5038167939
12.7130250931,0.673828125,-0.0361328125,0.7080078125,-0.496183206107,-52.5496183206,9.84732824427
12.7314760685,0.691650390625,-0.0390625,0.688232421875,-15.4427480916,-55.0458015267,2.39694656489
12.7499320507,0.71630859375,-0.0166015625,0.65625,-14.7328244275,-57.9541984733,1.03053435115
12.7683980465,0.736083984375,0.03076171875,0.504150390625,-9.90839694656,-52.6183206107,2.99236641221
12.7868580818,0.77392578125,0.037353515625,0.536865234375,-8.98473282443,-45.679389313,4.88549618321
12.8053190708,0.78857421875,0.089111328125,0.66650390625,-4.52671755725,-39.6183206107,9.00763358779
12.823841095,0.81103515625,0.0205078125,0.646484375,-11.6641221374,-51.5648854962,11.2366412214
12.8423211575,0.779052734375,-0.048583984375,0.52734375,-19.5648854962,-45.6259541985,6.29007633588
12.8607821465,0.803466796875,0.006103515625,0.575439453125,-9.45801526718,-39.3969465649,7.80916030534
12.8792471886,0.807373046875,-0.032470703125,0.683837890625,-5.77099236641,-47.7786259542,2.41984732824
12.8977053165,0.796875,-0.098388671875,0.51318359375,-0.87786259542,-47.3969465649,-3.7786259542
12.9161684513,0.80859375,-0.07177734375,0.51904296875,15.2442748092,-44.5954198473,-9.52671755725
12.9346354008,0.816162109375,-0.029052734375,0.56103515625,20.8015267176,-48.8854961832,-12.1374045802
12.9536623955,0.831298828125,0.000244140625,0.419189453125,7.5572519084,-43.0229007634,-8.69465648855
12.9721493721,0.8544921875,-0.016845703125,0.46630859375,11.0839694656,-41.1755725191,-7.65648854962
12.9906184673,0.85498046875,-0.06494140625,0.5234375,20.8549618321,-38.9923664122,-13.5572519084
13.0090825558,0.893798828125,0.056396484375,0.474365234375,19.8549618321,-34.9923664122,-9.61832061069
13.0275404453,0.91748046875,0.0068359375,0.52001953125,15.8473282443,-30.0,-3.57251908397
13.0460324287,0.91845703125,-0.0087890625,0.53173828125,15.9694656489,-29.4580152672,-6.16030534351
13.0644934177,0.93017578125,0.0146484375,0.597412109375,3.19847328244,-29.9083969466,-3.92366412214
13.0829584599,0.941162109375,0.057861328125,0.4716796875,-1.41221374046,-23.2519083969,-2.96946564885
13.1014144421,0.950927734375,0.033447265625,0.559326171875,-7.53435114504,-25.7786259542,-2.48854961832
13.1198735237,0.92236328125,-0.0283203125,0.5166015625,-10.2977099237,-31.1832061069,-4.48091603053
13.1383323669,0.92724609375,0.05224609375,0.39599609375,-2.09923664122,-17.6717557252,-2.25954198473
13.1568212509,0.904541015625,-0.011474609375,0.349853515625,-14.2519083969,-17.6335877863,-4.47328244275
13.1752831936,0.92529296875,0.09912109375,0.518310546875,0.526717557252,-16.786259542,1.27480916031
13.193747282,0.904296875,-0.01025390625,0.389404296875,2.93893129771,-18.3129770992,-2.22900763359
13.2122004032,0.91845703125,-0.02978515625,0.34912109375,9.5572519084,-12.9389312977,-5.42748091603
13.2306573391,0.93994140625,0.027587890625,0.383544921875,10.4885496183,-7.52671755725,-4.09923664122
13.249140501,0.951416015625,0.0234375,0.449462890625,9.18320610687,-9.12977099237,-5.56488549618
13.2676415443,0.956787109375,0.052490234375,0.369140625,-1.23664122137,-2.5572519084,-5.17557251908
13.2860734463,0.96728515625,0.09765625,0.4345703125,0.557251908397,-0.480916030534,-1.45038167939
13.3045284748,0.95751953125,0.035400390625,0.45849609375,-4.54961832061,-0.595419847328,-1.47328244275
13.3229875565,0.962890625,0.05419921875,0.4580078125,-15.9236641221,0.0610687022901,-1.14503816794
13.3414366245,0.961669921875,0.030517578125,0.4482421875,-7.04580152672,-3.45801526718,-0.648854961832
13.3599116802,0.948486328125,0.0439453125,0.430908203125,3.22900763359,-3.12977099237,-0.839694656489
13.3783636093,0.936767578125,0.039306640625,0.432861328125,-0.687022900763,-5.19083969466,-0.801526717557
13.3968174458,0.9521484375,-0.005126953125,0.44287109375,-3.14503816794,-5.58015267176,-0.206106870229
13.4152753353,0.94775390625,-0.0009765625,0.455078125,-3.87786259542,-6.07633587786,-0.618320610687
13.4337332249,0.9609375,0.0419921875,0.401611328125,0.801526717557,-4.2213740458,0.671755725191
13.4522073269,0.9482421875,0.058837890625,0.42822265625,6.40458015267,-2.53435114504,2.23664122137
13.4706585407,0.93017578125,-0.029052734375,0.41650390625,4.5572519084,-4.89312977099,-0.809160305344
13.4891066551,0.933837890625,-0.011962890625,0.4169921875,2.48091603053,-2.25190839695,-2.68702290076
13.5075647831,0.941650390625,0.042724609375,0.441650390625,-5.35114503817,0.145038167939,-4.19083969466
13.5260159969,0.9521484375,0.05224609375,0.494873046875,3.09160305344,-5.36641221374,-2.71755725191
13.5444750786,0.951416015625,0.039306640625,0.395263671875,1.75572519084,-1.96946564885,-2.12213740458
13.5630602837,0.95947265625,0.0419921875,0.416748046875,-3.54961832061,-1.37404580153,-1.16030534351
13.5815062523,0.967529296875,0.04150390625,0.44775390625,-1.96946564885,-2.70992366412,-0.442748091603
13.5999553204,0.9384765625,0.051513671875,0.407470703125,-4.63358778626,0.732824427481,0.488549618321
13.6183922291,0.942138671875,0.025146484375,0.400390625,-0.511450381679,2.8320610687,0.893129770992
13.6368281841,0.94580078125,-0.00341796875,0.424072265625,-0.358778625954,1.48091603053,-0.282442748092
13.6553113461,0.947998046875,0.0185546875,0.407470703125,1.80916030534,1.3893129771,-0.954198473282
13.6737701893,0.94580078125,0.036376953125,0.442138671875,1.90839694656,1.38167938931,-1.28244274809
13.692220211,0.943359375,0.0654296875,0.51806640625,-0.198473282443,-2.49618320611,-1.53435114504
13.7106692791,0.94921875,0.014404296875,0.4248046875,-0.152671755725,1.09923664122,-0.832061068702
13.7291202545,0.957763671875,0.03173828125,0.389404296875,-0.839694656489,4.13740458015,-1.24427480916
13.7475721836,0.94140625,0.03955078125,0.44384765625,-1.91603053435,5.45801526718,-1.08396946565
13.7660491467,0.955810546875,0.016845703125,0.44287109375,3.14503816794,3.75572519084,-1.35114503817
13.7844991684,0.938232421875,0.05419921875,0.41259765625,10.2977099237,5.01526717557,-0.671755725191
13.8029561043,0.9404296875,0.023681640625,0.433837890625,8.0,8.26717557252,-0.75572519084
13.8213970661,0.93603515625,0.020263671875,0.41552734375,5.53435114504,10.5954198473,-0.954198473282
13.8398509026,0.941162109375,0.040283203125,0.4296875,9.8320610687,11.1297709924,-1.11450381679
13.8583240509,0.9326171875,-0.00146484375,0.463623046875,12.641221374,12.0,-4.74045801527
13.8768470287,0.943115234375,0.01708984375,0.433837890625,10.320610687,13.0305343511,-6.84732824427
13.8953001499,0.94775390625,0.059326171875,0.392822265625,10.358778626,18.3435114504,-6.90839694656
13.9137532711,0.93212890625,0.020751953125,0.355224609375,12.0076335878,23.4885496183,-6.11450381679
13.9322023392,0.952880859375,0.08447265625,0.510498046875,6.98473282443,20.9083969466,-2.02290076336
13.9506485462,0.934814453125,0.0849609375,0.457763671875,-7.7786259542,22.3969465649,-1.27480916031
13.9691205025,0.923828125,0.092041015625,0.5400390625,-7.11450381679,21.7557251908,1.58778625954
13.9875745773,0.910888671875,0.094970703125,0.513916015625,-2.67938931298,20.6030534351,2.00763358779
14.0060257912,0.89453125,0.035888671875,0.46630859375,3.15267175573,23.1297709924,0.740458015267
14.0244748592,0.861083984375,-0.0078125,0.455810546875,3.45038167939,24.8549618321,-4.04580152672
14.042927742,0.871337890625,0.07568359375,0.505126953125,3.0,24.8854961832,-5.03053435115
14.0613906384,0.86669921875,0.036865234375,0.46630859375,13.0992366412,24.4732824427,-2.03053435115
14.0798475742,0.873046875,0.06591796875,0.505615234375,9.28244274809,28.7404580153,-4.03053435115
14.098297596,0.86376953125,0.08837890625,0.446533203125,-8.32061068702,33.2671755725,-3.5572519084
14.1167845726,0.873779296875,0.11474609375,0.447509765625,-11.6183206107,42.8625954198,0.36641221374
14.1352396011,0.850341796875,0.03662109375,0.465087890625,-3.12213740458,48.6717557252,-2.39694656489
14.1536867619,0.853759765625,0.05224609375,0.494873046875,9.19847328244,49.0229007634,-2.8320610687
14.1721558571,0.83642578125,0.067138671875,0.472900390625,11.8549618321,56.8625954198,-3.70992366412
14.1906039715,0.853271484375,0.10498046875,0.859375,9.09160305344,46.7938931298,-0.442748091603
14.2090518475,0.81494140625,0.123779296875,0.624755859375,-9.17557251908,40.9160305344,-0.343511450382
14.2275006771,0.79931640625,0.075927734375,0.5498046875,-31.2061068702,45.4885496183,1.89312977099
14.2459497452,0.7763671875,0.031005859375,0.479736328125,-43.5190839695,61.1908396947,-1.85496183206
14.2644279003,0.784423828125,0.094482421875,0.631591796875,-16.4122137405,58.5801526718,2.25190839695
14.2828960419,0.777099609375,0.10107421875,0.575439453125,21.7633587786,49.4427480916,6.39694656489
14.3013441563,0.692626953125,-0.051513671875,0.66357421875,23.320610687,51.9541984733,0.69465648855
14.3198831081,0.67919921875,-0.045166015625,0.791748046875,4.11450381679,37.5648854962,-6.51145038168
14.3383061886,0.654541015625,-0.01611328125,0.6044921875,-3.99236641221,40.2290076336,-12.2977099237
14.3567721844,0.662109375,0.046142578125,0.563720703125,-32.3435114504,53.1984732824,-16.7175572519
14.3752613068,0.658935546875,0.0849609375,0.500244140625,-23.8778625954,67.1679389313,-13.7480916031
14.3937253952,0.654296875,0.116455078125,0.6396484375,2.79389312977,74.4351145038,-12.0687022901
14.4121801853,0.62744140625,0.04052734375,0.802001953125,0.824427480916,64.2977099237,-12.5572519084
14.4306311607,0.61669921875,-0.014404296875,0.711181640625,-3.57251908397,60.1832061069,-15.0076335878
14.4490861893,0.602294921875,0.0244140625,0.6630859375,-1.2213740458,64.0,-14.8091603053
14.4675662518,0.5478515625,-0.0908203125,0.736083984375,-5.96946564885,67.8396946565,-20.0
14.4860291481,0.51171875,-0.00341796875,0.72607421875,-29.2061068702,71.8549618321,-28.4580152672
14.5044870377,0.547119140625,0.154052734375,0.994384765625,-16.8244274809,58.8167938931,-16.6641221374
14.5229520798,0.580322265625,0.1767578125,1.0263671875,-3.00763358779,31.8778625954,-7.56488549618
14.5414011478,0.5126953125,0.017822265625,0.68701171875,6.51145038168,33.0458015267,-7.08396946565
14.5598709583,0.50830078125,0.044921875,0.681884765625,1.45038167939,42.0152671756,-6.60305343511
14.5783529282,0.479736328125,0.01025390625,0.718017578125,-3.22900763359,46.320610687,-10.9312977099
14.596821785,0.481201171875,0.052978515625,0.75,1.85496183206,47.8702290076,-12.3816793893
14.6153168678,0.458984375,0.041259765625,0.827392578125,-10.3664122137,44.8625954198,-14.8091603053
14.6337757111,0.474853515625,0.072021484375,0.93408203125,-3.82442748092,33.6030534351,-11.1297709924
14.6522307396,0.43798828125,0.061279296875,0.76318359375,-6.23664122137,34.3435114504,-9.80916030534
14.6707098484,0.428955078125,0.06640625,0.680908203125,-7.57251908397,44.9312977099,-9.20610687023
14.6891686916,0.4267578125,0.034912109375,0.8046875,-6.43511450382,47.4427480916,-11.1374045802
14.7076227665,0.403564453125,0.11669921875,0.73291015625,2.14503816794,49.7328244275,-11.7099236641
14.7260828018,0.406005859375,0.11962890625,0.88818359375,-5.41984732824,53.6717557252,-8.71755725191
14.7445378304,0.3681640625,-0.159423828125,0.956298828125,-15.1755725191,45.2366412214,-14.1984732824
14.7630009651,0.36474609375,0.11669921875,0.908447265625,-8.3358778626,33.5572519084,-19.8244274809
14.7814750671,0.3447265625,0.090576171875,0.808349609375,-16.8396946565,35.5419847328,-12.0
14.8004229069,0.348876953125,0.0810546875,0.773681640625,-29.4580152672,41.9236641221,-4.6106870229
14.8188688755,0.339599609375,0.0791015625,0.819580078125,-15.1908396947,40.3969465649,0.801526717557
14.8373019695,0.3173828125,0.1162109375,0.85595703125,-0.557251908397,46.5496183206,7.25190839695
14.8557670116,0.33203125,0.1015625,0.965576171875,-0.267175572519,25.4122137405,13.6106870229
14.8742539883,0.26904296875,0.007080078125,0.7421875,-7.9465648855,30.2061068702,12.6564885496
14.8926990032,0.243896484375,-0.0625,0.809814453125,-1.68702290076,32.2442748092,5.83969465649
14.9111561775,0.2734375,0.0283203125,0.93896484375,15.1297709924,25.572519084,3.12977099237
14.9296150208,0.258056640625,0.03759765625,0.851806640625,0.63358778626,22.5572519084,-0.496183206107
14.9480690956,0.245849609375,-0.0107421875,0.752197265625,-4.35877862595,29.1908396947,-2.01526717557
14.9665281773,0.251953125,0.0400390625,0.785400390625,-7.01526717557,32.9847328244,-1.91603053435
14.9850132465,0.255126953125,0.066650390625,0.852294921875,-4.39694656489,30.427480916,3.97709923664
15.0034761429,0.222900390625,0.00341796875,0.87744140625,2.89312977099,24.0076335878,1.20610687023
15.0219340324,0.224853515625,0.0283203125,0.853515625,-3.90839694656,22.1984732824,1.85496183206
15.0403411388,0.210693359375,0.0078125,0.8017578125,-2.76335877863,23.4122137405,0.435114503817
15.0588133335,0.1923828125,-0.02392578125,0.806884765625,-18.5648854962,23.893129771,-3.07633587786
15.0772964954,0.211181640625,0.037109375,0.895751953125,-8.02290076336,23.1908396947,-0.641221374046
15.0958964825,0.203369140625,0.065185546875,0.906005859375,-0.572519083969,16.7099236641,-4.58778625954
15.1143534184,0.193359375,0.028564453125,0.895263671875,0.549618320611,10.8854961832,-2.96946564885
15.1328134537,0.201904296875,0.02880859375,0.873291015625,-0.229007633588,8.39694656489,-3.03816793893
15.151257515,0.17578125,-0.014404296875,0.8154296875,-6.26717557252,7.13740458015,-5.62595419847
15.1697084904,0.16943359375,0.055419921875,0.785888671875,-8.19847328244,14.0534351145,-3.41984732824
15.1881875992,0.18408203125,0.069091796875,0.896728515625,1.32824427481,10.1145038168,-0.221374045802
15.2066407204,0.178466796875,0.032470703125,0.9091796875,2.20610687023,3.08396946565,2.43511450382
15.22508955,0.165283203125,0.0029296875,0.876953125,-1.96946564885,-0.473282442748,2.0
15.2435386181,0.14892578125,0.027587890625,0.76953125,3.04580152672,1.3893129771,0.580152671756
15.2619967461,0.1435546875,0.0048828125,0.85205078125,2.41221374046,4.87786259542,-0.480916030534
15.2804758549,0.160400390625,0.034912109375,0.892822265625,3.3358778626,-0.580152671756,-0.0458015267176
15.2989356518,0.142822265625,0.04541015625,0.798828125,2.76335877863,1.22900763359,0.00763358778626
15.3173925877,0.142822265625,-0.007568359375,0.83935546875,2.57251908397,3.86259541985,0.809160305344
15.3358514309,0.12744140625,0.01220703125,0.82373046875,1.34351145038,1.52671755725,0.641221374046
15.3543064594,0.142333984375,-0.01025390625,0.84423828125,0.137404580153,4.0,-1.58015267176
15.372764349,0.159423828125,0.01318359375,0.922119140625,2.21374045802,1.88549618321,-2.22900763359
15.3912453651,0.1484375,0.045166015625,0.8427734375,-0.328244274809,-1.97709923664,-1.60305343511
15.4097044468,0.145751953125,-0.001708984375,0.8154296875,-1.89312977099,0.801526717557,-3.18320610687
15.42816329,0.158935546875,0.043701171875,0.876220703125,-4.80152671756,-1.82442748092,-0.0152671755725
15.4466261864,0.149169921875,0.04248046875,0.783203125,-1.38167938931,0.328244274809,-0.534351145038
15.4650862217,0.156005859375,0.018798828125,0.819091796875,4.13740458015,1.42748091603,-2.25190839695
15.4835693836,0.16845703125,0.032958984375,0.821044921875,4.03816793893,1.09160305344,-2.0
15.5020263195,0.142822265625,0.046630859375,0.813720703125,2.03053435115,1.7786259542,-0.954198473282
15.520481348,0.164794921875,0.05810546875,0.86083984375,9.30534351145,0.030534351145,0.732824427481
15.5389344692,0.155029296875,0.04296875,0.8203125,9.42748091603,0.923664122137,-0.0152671755725
15.5573854446,0.1630859375,0.052978515625,0.843505859375,8.46564885496,2.35877862595,-0.0229007633588
15.5758535862,0.1533203125,0.043212890625,0.89404296875,2.16030534351,-0.24427480916,-0.519083969466
15.5943295956,0.14599609375,0.02294921875,0.812255859375,-3.27480916031,0.282442748092,-1.09160305344
15.6127905846,0.15185546875,0.042236328125,0.826171875,-2.79389312977,5.48854961832,0.213740458015
15.6312384605,0.151611328125,0.05859375,0.824951171875,3.80916030534,5.82442748092,3.85496183206
15.6496925354,0.12939453125,-0.002685546875,0.888427734375,2.20610687023,4.50381679389,0.465648854962
15.6681447029,0.155517578125,0.003662109375,0.88427734375,-3.36641221374,3.72519083969,-1.01526717557
15.6866266727,0.12939453125,0.03515625,0.816650390625,-1.95419847328,1.70229007634,-1.3358778626
15.7050945759,0.134765625,0.04638671875,0.826904296875,1.6641221374,2.58778625954,-0.251908396947
15.7235536575,0.156005859375,0.028564453125,0.82666015625,1.14503816794,4.19083969466,0.12213740458
15.7420065403,0.13525390625,0.019775390625,0.841796875,0.36641221374,3.93129770992,-1.03816793893
15.7604603767,0.144775390625,0.02783203125,0.876708984375,0.832061068702,3.32824427481,-1.12977099237
15.7789163589,0.131103515625,0.0234375,0.831298828125,1.96946564885,1.29770992366,-2.6106870229
15.797396183,0.11083984375,0.050537109375,0.802001953125,-5.6106870229,6.47328244275,-1.6106870229
15.8158581257,0.144775390625,0.051513671875,0.890380859375,-4.80152671756,3.37404580153,-0.328244274809
15.8343141079,0.142333984375,0.05712890625,0.85009765625,-1.57251908397,0.396946564885,1.11450381679
15.8528430462,0.12548828125,0.02099609375,0.785400390625,-5.06870229008,3.39694656489,-0.725190839695
15.8712999821,0.136474609375,0.03857421875,0.844970703125,-5.06106870229,5.45801526718,-0.404580152672
15.8897809982,0.13720703125,0.0517578125,0.850341796875,-3.23664122137,2.35877862595,0.69465648855
15.9082410336,0.130859375,0.029296875,0.824951171875,-2.48854961832,2.78625954198,0.839694656489
15.9267041683,0.1240234375,0.0234375,0.86181640625,-1.06106870229,1.48854961832,-0.473282442748
15.9451580048,0.123046875,0.05029296875,0.786865234375,-5.71755725191,3.72519083969,-0.221374045802
15.9636180401,0.113525390625,0.017333984375,0.837646484375,-4.87786259542,5.97709923664,0.12213740458
15.9820740223,0.1181640625,0.028564453125,0.8642578125,-6.6641221374,5.12213740458,-0.496183206107
16.00060606,0.12109375,0.0234375,0.868896484375,-3.09923664122,4.38167938931,-0.30534351145
16.019064188,0.094482421875,-0.009521484375,0.856689453125,-5.96946564885,5.03816793893,-3.8320610687
16.0375182629,0.1142578125,0.04541015625,0.85595703125,1.48091603053,0.885496183206,-3.09923664122
16.0559771061,0.080322265625,-0.007080078125,0.79833984375,-6.41984732824,5.17557251908,-5.12213740458
16.074431181,0.10205078125,0.031494140625,0.822265625,-11.0,5.2213740458,-5.49618320611
16.0928931236,0.1220703125,0.0634765625,0.8447265625,-2.27480916031,4.88549618321,-0.129770992366
16.1113421917,0.1142578125,0.029052734375,0.8603515625,3.88549618321,3.73282442748,2.23664122137
16.1297984123,0.118408203125,-0.086669921875,0.8369140625,-3.72519083969,0.618320610687,0.213740458015
16.1482474804,0.11669921875,0.0146484375,0.850341796875,-0.419847328244,0.503816793893,-0.916030534351
16.166706562,0.1005859375,0.033935546875,0.780517578125,-1.22900763359,1.85496183206,0.00763358778626
16.1851615906,0.10693359375,-0.0068359375,0.835205078125,2.41221374046,1.96946564885,-1.35877862595
16.2036545277,0.109375,0.012939453125,0.86328125,-0.290076335878,2.87786259542,-0.839694656489
16.2221136093,0.099609375,0.0029296875,0.79443359375,0.778625954198,4.5572519084,-2.81679389313
16.2405636311,0.1015625,0.0185546875,0.869384765625,-2.45038167939,3.16030534351,-2.75572519084
16.2590155602,0.100830078125,0.0712890625,0.836669921875,1.17557251908,0.671755725191,0.236641221374
16.2774705887,0.096923828125,0.046630859375,0.8515625,5.74809160305,0.786259541985,0.893129770992
16.2959496975,0.108154296875,0.013671875,0.812744140625,3.65648854962,3.09160305344,0.679389312977
16.3144056797,0.098388671875,0.031005859375,0.8828125,8.19847328244,0.702290076336,1.0534351145
16.3328647614,0.09423828125,0.00927734375,0.881103515625,5.56488549618,-0.709923664122,-0.671755725191
16.35131073,0.08056640625,0.028076171875,0.860107421875,8.38167938931,-2.46564885496,-0.984732824427
16.3697657585,0.10498046875,0.042236328125,0.85107421875,5.86259541985,-1.90839694656,0.114503816794
16.388220787,0.0947265625,0.022705078125,0.797119140625,6.21374045802,-0.923664122137,-0.129770992366
16.4067046642,0.100830078125,0.043212890625,0.838623046875,5.19847328244,0.198473282443,0.69465648855
16.4251616001,0.102294921875,0.045166015625,0.83642578125,14.0152671756,0.381679389313,-0.12213740458
16.4436216354,0.132080078125,0.087646484375,0.898681640625,21.679389313,-2.48854961832,-0.427480916031
16.4620778561,0.09326171875,0.037841796875,0.84033203125,28.7557251908,-2.92366412214,0.580152671756
16.4805338383,0.0927734375,0.031982421875,0.789794921875,27.9923664122,-1.45038167939,3.87022900763
16.4990098476,0.107666015625,0.087890625,0.85107421875,32.572519084,-1.35877862595,0.480916030534
16.5174686909,0.111328125,0.115478515625,0.83984375,42.786259542,-3.54961832061,-0.0992366412214
16.5359287262,0.115478515625,0.11865234375,0.851318359375,48.5572519084,-2.81679389313,0.793893129771
16.5543835163,0.089599609375,0.037841796875,0.88232421875,51.3740458015,-3.30534351145,-0.847328244275
16.5728914738,0.111328125,0.214599609375,0.765625,74.358778626,3.18320610687,5.09923664122
16.5913465023,0.114501953125,0.17236328125,0.8681640625,43.4885496183,-1.34351145038,0.381679389313
16.6160664558,0.099365234375,0.166259765625,0.798095703125,29.6106870229,1.27480916031,2.57251908397
16.6345555782,0.100341796875,0.2021484375,0.809326171875,31.3893129771,-1.8320610687,-0.221374045802
16.6535544395,0.108154296875,0.18798828125,0.841064453125,40.320610687,-0.893129770992,0.549618320611
16.672046423,0.095703125,0.180908203125,0.8310546875,42.6259541985,-2.95419847328,0.114503816794
16.6905083656,0.1044921875,0.2236328125,0.81640625,47.0152671756,-2.81679389313,-3.71755725191
16.7089931965,0.09228515625,0.208740234375,0.820556640625,74.679389313,-6.57251908397,-6.10687022901
16.7274563313,0.098388671875,0.28271484375,0.7919921875,70.6259541985,-4.96183206107,-6.6641221374
16.7459144592,0.107666015625,0.29541015625,0.782470703125,62.0305343511,-1.41984732824,-3.58778625954
16.7643744946,0.10888671875,0.312255859375,0.783447265625,74.3893129771,1.01526717557,-3.5572519084
16.7828345299,0.1005859375,0.3271484375,0.80419921875,47.4198473282,-2.80152671756,-3.48091603053
16.8012876511,0.0693359375,0.3125,0.724365234375,83.2290076336,0.18320610687,-4.58015267176
16.8197674751,0.10888671875,0.323486328125,0.80078125,90.5267175573,-3.16030534351,-6.51908396947
16.8382234573,0.091552734375,0.401123046875,0.8076171875,78.1832061069,-0.351145038168,-4.90839694656
16.8566794395,0.12158203125,0.420654296875,0.755615234375,71.5496183206,-7.72519083969,-19.9389312977
16.875143528,0.107421875,0.49609375,0.7265625,111.709923664,4.96183206107,5.2213740458
16.8935964108,0.12451171875,0.518798828125,0.667236328125,30.4809160305,-0.496183206107,-12.3816793893
16.9120082855,0.100341796875,0.539306640625,0.689208984375,23.0458015267,0.358778625954,-0.396946564885
16.9304873943,0.107666015625,0.4765625,0.72900390625,19.3435114504,-4.58015267176,-5.42748091603
16.948946476,0.071533203125,0.18994140625,0.818359375,36.6259541985,-8.95419847328,-19.572519084
16.9674086571,0.115234375,0.503662109375,0.77490234375,41.8549618321,-10.6335877863,-11.0687022901
16.9858677387,0.09814453125,0.55859375,0.635986328125,250.129770992,-5.41984732824,44.4045801527
17.004326582,0.062744140625,0.35693359375,0.76708984375,174.34351145,24.5114503817,-6.97709923664
17.0228126049,0.05712890625,0.65380859375,0.434814453125,65.6564885496,4.17557251908,-5.93893129771
17.0412676334,0.104736328125,0.678466796875,0.558837890625,56.0763358779,-5.38167938931,-6.81679389313
17.0597217083,0.0986328125,0.657958984375,0.56201171875,22.4427480916,-1.23664122137,-8.8320610687
17.0781776905,0.093017578125,0.659912109375,0.5966796875,17.5648854962,-2.22900763359,-6.34351145038
17.0966346264,0.101806640625,0.652099609375,0.599609375,15.2595419847,-3.81679389313,-5.77099236641
17.1150927544,0.101806640625,0.638427734375,0.584716796875,22.5954198473,-5.25190839695,-6.67175572519
17.1335527897,0.100830078125,0.653076171875,0.60107421875,37.8854961832,-6.67175572519,-7.82442748092
17.152056694,0.10791015625,0.646484375,0.571533203125,71.4503816794,-5.53435114504,-9.02290076336
17.1705117226,0.154052734375,1.04541015625,0.303955078125,250.129770992,44.5801526718,18.7633587786
17.188975811,0.162353515625,0.964111328125,0.197509765625,20.0916030534,3.18320610687,-1.7786259542
17.2074356079,0.1123046875,0.738525390625,0.5390625,16.679389313,-7.57251908397,-4.06870229008
17.2258896828,0.085205078125,0.672607421875,0.555908203125,20.2061068702,-2.51908396947,-3.04580152672
17.2443528175,0.10400390625,0.73974609375,0.430419921875,10.8549618321,-1.12977099237,-5.47328244275
17.2628149986,0.09375,0.745849609375,0.521240234375,12.2900763359,-0.893129770992,-4.01526717557
17.2812700272,0.084228515625,0.729736328125,0.488037109375,16.3816793893,-4.04580152672,-6.12213740458
17.2997260094,0.08740234375,0.7724609375,0.468505859375,31.7328244275,-3.17557251908,-6.41984732824
17.31818223,0.0986328125,0.7841796875,0.5068359375,27.8549618321,-2.96946564885,-5.6641221374
17.3366601467,0.078369140625,0.7578125,0.451416015625,25.1603053435,-4.09160305344,-6.77099236641
17.3551211357,0.081787109375,0.782958984375,0.407470703125,27.8396946565,-2.14503816794,-10.9694656489
17.3735671043,0.06689453125,0.746337890625,0.414794921875,44.0305343511,-6.45801526718,-9.23664122137
17.3921561241,0.06298828125,0.751708984375,0.397216796875,41.786259542,-7.52671755725,-12.5496183206
17.4106121063,0.07275390625,0.72119140625,0.445556640625,29.358778626,-6.08396946565,-9.79389312977
17.4290652275,0.074462890625,0.764892578125,0.37255859375,29.4961832061,-1.63358778626,-7.59541984733
17.4475841522,0.0625,0.76220703125,0.45849609375,34.6183206107,-10.1755725191,-10.9847328244
17.4660372734,0.083251953125,0.829345703125,0.315673828125,46.213740458,-5.89312977099,-12.4045801527
17.4844932556,0.011474609375,0.690185546875,0.321044921875,59.8778625954,-5.41221374046,-14.9236641221
17.5029492378,0.093505859375,0.879638671875,0.4443359375,60.1603053435,-12.6335877863,-26.2290076336
17.5213963985,0.079833984375,0.90380859375,0.35107421875,76.7251908397,-9.70992366412,-14.2213740458
17.5398705006,0.069580078125,0.84228515625,0.290771484375,100.083969466,-0.961832061069,-16.0839694656
17.558349371,0.046142578125,0.828857421875,0.26953125,33.8396946565,-1.2213740458,-10.1755725191
17.5768332481,0.09521484375,0.928466796875,0.3046875,34.0610687023,-0.709923664122,-7.04580152672
17.5952882767,0.05859375,0.883056640625,0.3291015625,21.9923664122,-0.496183206107,-4.37404580153
17.6137371063,0.0634765625,0.87890625,0.3583984375,8.90839694656,-3.16030534351,-1.85496183206
17.6321971416,0.074951171875,0.869384765625,0.26904296875,3.04580152672,-1.30534351145,-0.412213740458
17.6506791115,0.066162109375,0.855712890625,0.29541015625,15.465648855,-1.60305343511,-2.30534351145
17.6691262722,0.063232421875,0.8671875,0.316162109375,23.0839694656,-3.76335877863,-2.04580152672
17.687592268,0.06689453125,0.884765625,0.320556640625,14.4351145038,-4.09923664122,-0.93893129771
17.7060432434,0.070556640625,0.896484375,0.2392578125,3.51145038168,-0.557251908397,-1.25954198473
17.7245042324,0.064208984375,0.877197265625,0.28515625,10.2290076336,-0.274809160305,-1.78625954198
17.742988348,0.074462890625,0.8935546875,0.303955078125,11.4732824427,0.12213740458,-1.1679389313
17.761446476,0.05908203125,0.906982421875,0.30419921875,8.41984732824,0.36641221374,2.09923664122
17.7798545361,0.07080078125,0.878662109375,0.262939453125,8.30534351145,-1.95419847328,1.35114503817
17.7983124256,0.06494140625,0.873779296875,0.255126953125,3.8320610687,0.778625954198,-2.15267175573
17.8167994022,0.0498046875,0.893798828125,0.2919921875,1.43511450382,-1.51145038168,-2.74809160305
17.8352532387,0.0556640625,0.91064453125,0.268798828125,-3.06870229008,-0.259541984733,-0.465648854962
17.8537123203,0.05810546875,0.89453125,0.26708984375,-4.97709923664,-1.70229007634,-0.0839694656489
17.8721764088,0.07275390625,0.89404296875,0.2802734375,-0.267175572519,1.02290076336,0.480916030534
17.890632391,0.06103515625,0.868408203125,0.28759765625,0.0458015267176,0.274809160305,-1.47328244275
17.9090864658,0.067626953125,0.89306640625,0.257568359375,3.89312977099,-1.16030534351,0.30534351145
17.9275436401,0.059814453125,0.90087890625,0.293701171875,5.37404580153,1.6106870229,0.0763358778626
17.9460206032,0.060302734375,0.8935546875,0.26904296875,-8.48091603053,1.07633587786,0.12213740458
17.9644765854,0.049560546875,0.920166015625,0.281982421875,-11.9541984733,1.56488549618,-0.488549618321
17.982935667,0.052978515625,0.8935546875,0.259033203125,-7.08396946565,2.71755725191,-0.343511450382
18.0013916492,0.063232421875,0.914306640625,0.310546875,-3.67175572519,1.19847328244,1.3358778626
18.0198426247,0.056884765625,0.900634765625,0.322265625,3.80916030534,-1.04580152672,2.61832061069
18.0384397507,0.054443359375,0.894775390625,0.287109375,2.40458015267,-0.656488549618,3.28244274809
18.0569217205,0.057861328125,0.8896484375,0.244873046875,1.64885496183,0.190839694656,1.1679389313
18.0753626823,0.06884765625,0.9072265625,0.26318359375,-12.8091603053,3.63358778626,1.39694656489
18.0937895775,0.065185546875,0.902587890625,0.29296875,-18.5190839695,2.70992366412,4.01526717557
18.1122443676,0.062255859375,0.885498046875,0.321044921875,-10.6488549618,1.78625954198,2.25190839695
18.1306874752,0.067138671875,0.8798828125,0.28466796875,-14.2290076336,-1.1679389313,2.51145038168
18.1492686272,0.06005859375,0.88818359375,0.28125,-11.6259541985,0.343511450382,3.67175572519
18.1677317619,0.091796875,0.868896484375,0.2666015625,-31.8549618321,7.13740458015,3.10687022901
18.1861805916,0.0888671875,0.96826171875,0.2392578125,-29.0076335878,7.07633587786,2.3893129771
18.2046685219,0.073974609375,0.920166015625,0.2958984375,-32.5954198473,6.69465648855,2.95419847328
18.2231214046,0.06005859375,0.892822265625,0.31201171875,-22.7328244275,1.45038167939,2.08396946565
18.2415714264,0.07763671875,0.834716796875,0.295166015625,-37.6870229008,4.31297709924,-0.625954198473
18.2600464821,0.074462890625,0.871337890625,0.379638671875,-40.7938931298,1.21374045802,3.86259541985
18.2784984112,0.0712890625,0.833251953125,0.39013671875,-45.6259541985,-0.625954198473,3.88549618321
18.2969453335,0.05859375,0.84228515625,0.3212890625,-37.106870229,1.52671755725,3.35114503817
18.3153944016,0.06787109375,0.866943359375,0.3447265625,-41.4809160305,4.70229007634,3.20610687023
18.3338475227,0.07470703125,0.831298828125,0.361328125,-46.3816793893,6.22900763359,2.46564885496
18.3523244858,0.071044921875,0.827880859375,0.437744140625,-43.6488549618,1.50381679389,3.59541984733
18.3707683086,0.0546875,0.750244140625,0.416015625,-23.1145038168,0.839694656489,3.26717557252
18.3892183304,0.081298828125,0.827880859375,0.4130859375,-52.6564885496,6.2213740458,5.27480916031
18.4076724052,0.056396484375,0.80712890625,0.39404296875,-41.3511450382,4.51145038168,1.72519083969
18.4261214733,0.07275390625,0.90625,0.38134765625,-26.8778625954,5.4427480916,6.69465648855
18.4446156025,0.073974609375,0.817138671875,0.4248046875,-11.3816793893,2.58778625954,4.11450381679
18.4630937576,0.0712890625,0.785400390625,0.43310546875,-16.7175572519,3.32061068702,3.39694656489
18.481541872,0.072509765625,0.71435546875,0.44482421875,-72.7633587786,5.22900763359,4.74045801527
18.5005209446,0.087646484375,0.79052734375,0.443603515625,-64.9618320611,5.45038167939,1.31297709924
18.5190000534,0.064453125,0.758544921875,0.5107421875,-65.5572519084,2.69465648855,-0.687022900763
18.5374572277,0.0576171875,0.73291015625,0.51025390625,-48.5648854962,1.54198473282,0.0
18.5559363365,0.064697265625,0.737060546875,0.4951171875,-46.9236641221,4.27480916031,-0.63358778626
18.5744013786,0.068359375,0.731201171875,0.5302734375,-60.1755725191,5.02290076336,1.5572519084
18.5928552151,0.072509765625,0.7197265625,0.549072265625,-79.7786259542,3.16030534351,3.41984732824
18.6113023758,0.075927734375,0.705078125,0.54150390625,-77.3053435115,1.59541984733,5.90076335878
18.6297523975,0.068359375,0.69287109375,0.57275390625,-62.679389313,0.770992366412,3.65648854962
18.6482043266,0.071533203125,0.677490234375,0.58447265625,-68.8320610687,0.648854961832,3.31297709924
18.6666722298,0.073974609375,0.650146484375,0.5703125,-68.9541984733,5.81679389313,5.42748091603
18.6851360798,0.064453125,0.634033203125,0.609619140625,-37.8473282443,1.73282442748,5.79389312977
18.7035961151,0.074951171875,0.6005859375,0.632568359375,-52.427480916,0.343511450382,5.70992366412
18.7220630646,0.05908203125,0.595458984375,0.6318359375,-65.4198473282,-1.79389312977,2.84732824427
18.7405121326,0.064453125,0.573486328125,0.666748046875,-83.9847328244,1.26717557252,2.19083969466
18.7589931488,0.074951171875,0.591064453125,0.68603515625,-77.7099236641,-0.832061068702,2.12977099237
18.7774503231,0.0634765625,0.510498046875,0.64404296875,-63.0610687023,0.687022900763,-0.412213740458
18.7959423065,0.075439453125,0.582763671875,0.660888671875,-32.0305343511,1.06870229008,3.77099236641
18.8144042492,0.068359375,0.48681640625,0.647216796875,-69.8854961832,3.51145038168,2.49618320611
18.8328602314,0.09765625,0.581787109375,0.6875,-87.1603053435,2.53435114504,4.42748091603
18.8513121605,0.05712890625,0.47412109375,0.739501953125,-38.4732824427,-4.54198473282,5.1679389313
18.8697881699,0.069091796875,0.424072265625,0.692626953125,-50.4809160305,0.175572519084,2.5572519084
18.8882522583,0.06689453125,0.45361328125,0.71875,-43.9465648855,0.656488549618,0.778625954198
18.9068021774,0.072509765625,0.482666015625,0.7265625,-52.5114503817,0.206106870229,1.30534351145
18.9252662659,0.06494140625,0.447509765625,0.68603515625,-62.5801526718,0.0763358778626,2.52671755725
18.9437272549,0.07421875,0.389892578125,0.785400390625,-85.1145038168,1.1679389313,6.67175572519
18.9622132778,0.072998046875,0.377197265625,0.749267578125,-70.0610687023,2.41984732824,3.79389312977
18.9806683064,0.016357421875,0.330810546875,0.75732421875,-40.5267175573,-3.51145038168,4.61832061069
18.9991223812,0.07080078125,0.32666015625,0.77685546875,-27.0229007634,-3.6641221374,2.45038167939
19.0175793171,0.075439453125,0.326171875,0.763671875,-42.8625954198,-0.541984732824,2.29770992366
19.0360372066,0.079833984375,0.260986328125,0.818115234375,-75.0687022901,-1.25954198473,3.45038167939
19.054500103,0.088134765625,0.21435546875,0.842041015625,-89.8015267176,-5.3893129771,-0.557251908397
19.0729801655,0.063720703125,0.2421875,0.85888671875,-37.5114503817,-3.06106870229,1.8320610687
19.0914373398,0.069580078125,0.2392578125,0.768798828125,-53.9007633588,0.427480916031,0.763358778626
19.1098954678,0.153564453125,0.05810546875,0.912353515625,-111.687022901,-2.77099236641,2.41984732824
19.1283545494,0.08837890625,0.23291015625,0.800048828125,-75.4732824427,-0.290076335878,0.0687022900763
19.1468095779,0.10009765625,0.194091796875,0.835693359375,-59.9083969466,-5.68702290076,9.47328244275
19.1652696133,0.09033203125,0.159423828125,0.752197265625,-86.427480916,-3.83969465649,3.91603053435
19.1837544441,0.051513671875,0.181640625,0.70068359375,-30.6946564885,1.56488549618,0.732824427481
19.2022204399,0.082763671875,0.14404296875,0.83447265625,-51.427480916,-1.53435114504,0.625954198473
19.2206714153,0.074462890625,0.125,0.8203125,-49.8396946565,1.41221374046,5.70992366412
19.2391264439,0.12451171875,0.228759765625,0.798095703125,-96.0305343511,-3.90076335878,-6.91603053435
19.2575864792,0.048583984375,-0.01953125,0.89013671875,-39.1374045802,-3.69465648855,2.41984732824
19.276065588,0.084228515625,0.02978515625,0.84375,-46.7328244275,-1.08396946565,0.343511450382
19.2945306301,0.05908203125,0.026611328125,0.759033203125,-20.1221374046,3.72519083969,1.32824427481
19.3129866123,0.0908203125,0.03369140625,0.83984375,-19.8854961832,0.63358778626,2.01526717557
19.3314404488,0.08203125,-0.03173828125,0.806884765625,-112.106870229,3.29007633588,-9.67938931298
19.3498954773,0.03857421875,-0.0341796875,0.72802734375,-38.9847328244,5.67175572519,4.31297709924
19.3683536053,0.08447265625,-0.04736328125,0.892822265625,-40.2977099237,1.3358778626,4.74809160305
19.3868336678,0.071533203125,-0.060302734375,0.861083984375,-4.07633587786,-0.69465648855,1.88549618321
19.4052987099,0.07666015625,-0.0595703125,0.85888671875,-7.5572519084,-0.69465648855,0.671755725191
19.4237587452,0.092529296875,-0.049072265625,0.848388671875,8.95419847328,-2.40458015267,-0.229007633588
19.4422256947,0.080078125,-0.03662109375,0.837890625,0.190839694656,-1.61832061069,1.18320610687
19.4606776237,0.074462890625,-0.036865234375,0.8134765625,-11.6183206107,1.36641221374,2.8320610687
19.4791314602,0.08544921875,-0.031005859375,0.8681640625,-10.4427480916,0.30534351145,4.06106870229
19.4976103306,0.0771484375,-0.087646484375,0.866943359375,2.20610687023,-2.00763358779,0.519083969466
19.5160703659,0.0693359375,-0.06494140625,0.833740234375,16.1450381679,-0.809160305344,-1.00763358779
19.5345313549,0.07421875,-0.05712890625,0.85791015625,28.5877862595,-2.84732824427,-1.71755725191
19.5530352592,0.0751953125,-0.03369140625,0.82275390625,7.48091603053,0.175572519084,-1.89312977099
19.5714993477,0.074462890625,-0.0458984375,0.85693359375,5.58015267176,-3.49618320611,-2.30534351145
19.5899753571,0.078125,-0.03466796875,0.836181640625,4.6106870229,-0.496183206107,-0.854961832061
19.6084413528,0.083740234375,-0.044677734375,0.86767578125,8.22900763359,-5.76335877863,-1.87022900763
19.6268982887,0.084228515625,-0.026611328125,0.85400390625,6.93893129771,-1.80916030534,-1.18320610687
19.6453614235,0.0927734375,-0.013916015625,0.816650390625,-2.21374045802,-0.832061068702,-0.0610687022901
19.6638774872,0.0791015625,-0.0341796875,0.8359375,4.39694656489,-1.88549618321,-0.442748091603
19.682343483,0.086669921875,-0.007080078125,0.834716796875,19.4045801527,-3.00763358779,-0.290076335878
19.7008225918,0.06982421875,-0.0517578125,0.85986328125,18.3511450382,-2.10687022901,0.603053435115
19.7192854881,0.06640625,-0.009765625,0.828369140625,8.22900763359,-2.76335877863,0.412213740458
19.7377443314,0.0869140625,0.011474609375,0.869140625,8.7786259542,-2.97709923664,1.13740458015
19.7562003136,0.0830078125,-0.0263671875,0.794677734375,-3.10687022901,-1.19847328244,0.572519083969
19.7746591568,0.090087890625,-0.011474609375,0.80126953125,-0.893129770992,2.43511450382,0.717557251908
19.793115139,0.080322265625,-0.02685546875,0.84716796875,-5.85496183206,0.259541984733,-0.450381679389
19.8116459846,0.080322265625,-0.00244140625,0.848876953125,-5.68702290076,0.389312977099,-0.809160305344
19.8301048279,0.089111328125,-0.00390625,0.838623046875,-19.0229007634,0.793893129771,0.862595419847
19.8485658169,0.08740234375,-0.0244140625,0.8505859375,-24.4961832061,1.1679389313,0.389312977099
19.8670196533,0.080322265625,-0.03759765625,0.84228515625,-32.6259541985,2.19083969466,1.51145038168
19.8854796886,0.074951171875,0.077880859375,0.85205078125,-42.0458015267,1.97709923664,-0.603053435115
19.9039638042,0.091796875,0.073486328125,0.98193359375,-64.3816793893,-0.488549618321,-2.70229007634
19.9224298,0.0888671875,0.0009765625,0.842529296875,-71.0763358779,5.03816793893,-5.56488549618
19.9408867359,0.069580078125,-0.203369140625,0.8115234375,-168.908396947,4.45801526718,-29.5954198473
19.9593408108,0.086669921875,0.272705078125,0.578369140625,-191.709923664,-3.73282442748,-17.3282442748
19.9777979851,0.087890625,-0.180908203125,0.748046875,-186.526717557,-1.12977099237,-17.0610687023
19.9962639809,0.06640625,-0.31494140625,0.780029296875,-96.2061068702,0.488549618321,-10.9007633588
20.0147459507,0.118896484375,-0.242919921875,0.697998046875,-20.1526717557,-4.34351145038,-4.11450381679
20.0332038403,0.091064453125,-0.364501953125,0.793701171875,8.80152671756,-6.34351145038,-3.73282442748
20.0516779423,0.08642578125,-0.349609375,0.779541015625,-3.67938931298,-4.9465648855,-2.54961832061
20.0700879097,0.09326171875,-0.34130859375,0.760498046875,-0.954198473282,-2.2213740458,-1.87022900763
20.088506937,0.096435546875,-0.349609375,0.764404296875,-4.74045801527,-0.519083969466,-1.74045801527
20.1069970131,0.097900390625,-0.343017578125,0.771240234375,-13.4809160305,0.69465648855,0.0992366412214
20.1254661083,0.093994140625,-0.352294921875,0.78369140625,-13.6259541985,0.488549618321,1.3893129771
20.1439292431,0.089599609375,-0.3583984375,0.758544921875,-13.0229007634,0.18320610687,0.526717557252
20.1623914242,0.08935546875,-0.36376953125,0.765380859375,-15.1145038168,-0.0763358778626,-0.854961832061
20.180845499,0.093505859375,-0.3720703125,0.78759765625,-20.106870229,-0.793893129771,0.0916030534351
20.1993045807,0.094970703125,-0.383544921875,0.78271484375,-27.106870229,-0.946564885496,1.61832061069
20.2177855968,0.082763671875,-0.354248046875,0.76513671875,-38.2824427481,-0.572519083969,3.5572519084
20.2362437248,0.1044921875,-0.396240234375,0.780517578125,-38.5954198473,0.603053435115,2.70229007634
20.2547018528,0.08447265625,-0.3564453125,0.784423828125,-40.0534351145,-0.595419847328,3.22900763359
20.273154974,0.09765625,-0.53955078125,0.72412109375,-62.4732824427,2.2213740458,0.732824427481
20.2916209698,0.087890625,-0.509521484375,0.701416015625,-41.9618320611,5.03053435115,-5.39694656489
20.3100898266,0.11865234375,-0.296875,0.53125,-30.0076335878,9.20610687023,1.50381679389
20.3285527229,0.06005859375,-0.528076171875,0.76904296875,-64.2824427481,-0.114503816794,-1.35114503817
20.3470976353,0.07470703125,-0.41064453125,0.682861328125,-39.6717557252,1.24427480916,-2.60305343511
20.3655667305,0.1171875,-0.491455078125,0.793212890625,-57.465648855,-3.43511450382,-11.0458015267
20.3840298653,0.092041015625,-0.510498046875,0.79345703125,-44.7404580153,-5.58015267176,-0.885496183206
20.402493,0.083251953125,-0.586181640625,0.6748046875,-69.4961832061,2.14503816794,-13.2977099237
20.4210760593,0.0966796875,-0.535888671875,0.72265625,-49.8473282443,-1.09923664122,-3.03816793893
20.4395370483,0.098388671875,-0.553955078125,0.654052734375,-50.6717557252,2.49618320611,-0.251908396947
20.45799613,0.103759765625,-0.545166015625,0.53955078125,-34.5648854962,6.43511450382,-5.6106870229
20.4764530659,0.108642578125,-0.5849609375,0.6494140625,-59.3053435115,0.0992366412214,-5.63358778626
20.4949200153,0.086669921875,-0.553955078125,0.614013671875,-71.2595419847,1.21374045802,3.65648854962
20.5133988857,0.08642578125,-0.715576171875,0.651611328125,-123.045801527,-0.488549618321,-0.641221374046
20.5318717957,0.097412109375,-0.622314453125,0.601318359375,-69.2977099237,3.64122137405,1.03053435115
20.5503237247,0.060791015625,-0.713623046875,0.56787109375,-86.8625954198,5.82442748092,-4.22900763359
20.5687766075,0.061767578125,-0.70751953125,0.62158203125,-77.9007633588,3.53435114504,3.57251908397
20.5872294903,0.085693359375,-0.763916015625,0.52734375,-130.458015267,-2.19083969466,3.57251908397
20.6056995392,0.112060546875,-0.72216796875,0.60498046875,-71.3053435115,-0.480916030534,4.02290076336
20.6241836548,0.118896484375,-0.599365234375,0.55029296875,-64.0458015267,-2.53435114504,2.13740458015
20.6426506042,0.0859375,-0.735107421875,0.474365234375,-87.9389312977,6.14503816794,4.30534351145
20.6611094475,0.15087890625,-0.575927734375,0.370361328125,-51.1908396947,6.07633587786,3.03816793893
20.6795654297,0.06884765625,-0.7734375,0.41943359375,-82.2366412214,6.72519083969,6.58015267176
20.6980192661,0.078369140625,-0.9228515625,0.47119140625,-126.557251908,4.67175572519,4.63358778626
20.7164752483,0.099853515625,-0.80078125,0.503173828125,-59.9160305344,5.24427480916,3.98473282443
20.7349600792,0.0732421875,-0.81982421875,0.475341796875,-38.3129770992,2.18320610687,2.17557251908
20.7534170151,0.0654296875,-0.838623046875,0.380615234375,-35.8320610687,3.39694656489,2.45801526718
20.7718811035,0.07666015625,-0.8466796875,0.394775390625,-38.8320610687,1.4427480916,1.71755725191
20.7903292179,0.0751953125,-0.822021484375,0.355224609375,-40.0839694656,0.206106870229,1.8320610687
20.8087842464,0.0615234375,-0.8193359375,0.35107421875,-42.2290076336,6.62595419847,4.67175572519
20.8272502422,0.06396484375,-0.8427734375,0.330078125,-54.4045801527,5.92366412214,5.96946564885
20.8457183838,0.06005859375,-0.85888671875,0.3349609375,-61.0229007634,9.07633587786,7.64122137405
20.8641695976,0.0751953125,-0.9150390625,0.322509765625,-66.0687022901,8.93893129771,6.73282442748
20.8826236725,0.055419921875,-0.882568359375,0.336181640625,-64.2061068702,8.41221374046,7.71755725191
20.9010696411,0.05224609375,-0.9189453125,0.298583984375,-89.4885496183,10.3969465649,2.58015267176
20.9195196629,0.073486328125,-0.8603515625,0.114501953125,-75.7557251908,11.0152671756,8.4427480916
20.9379925728,0.04248046875,-0.914306640625,0.2431640625,-85.3816793893,4.41221374046,11.8473282443
20.9564445019,0.060302734375,-0.9892578125,0.230224609375,-70.7938931298,0.801526717557,5.20610687023
20.974896431,0.03759765625,-0.927490234375,0.200439453125,-44.2824427481,-1.2213740458,3.70992366412
20.9933423996,0.029296875,-0.99951171875,0.177490234375,-18.6183206107,-3.67938931298,1.88549618321
21.0118014812,0.044189453125,-0.97412109375,0.141845703125,-16.8015267176,-0.679389312977,-1.18320610687
21.0302433968,0.035400390625,-0.896484375,0.173828125,-30.1984732824,-3.53435114504,5.12977099237
21.0487184525,0.05126953125,-0.929443359375,0.160400390625,-34.9465648855,-6.71755725191,8.75572519084
21.0671694279,0.032470703125,-1.00708007812,0.117431640625,-28.5648854962,-4.10687022901,4.18320610687
21.0856273174,0.027099609375,-0.955078125,0.12158203125,-25.106870229,-0.778625954198,2.45801526718
21.1040973663,0.015625,-0.96435546875,0.119384765625,-19.7404580153,0.0610687022901,2.6106870229
21.1225533485,0.02587890625,-0.963134765625,0.099853515625,-28.1526717557,0.87786259542,1.97709923664
21.141020298,0.046142578125,-0.970947265625,0.16552734375,-25.5267175573,-1.0534351145,-0.748091603053
21.1595432758,0.016357421875,-0.94140625,0.11767578125,-24.0458015267,-0.549618320611,2.06870229008
21.1779983044,0.0283203125,-0.976806640625,0.123779296875,-27.4732824427,-1.39694656489,2.25954198473
21.1964492798,0.030517578125,-0.950439453125,0.117431640625,-22.8854961832,-1.42748091603,3.25954198473
21.214905262,0.032958984375,-0.96044921875,0.0830078125,-22.3435114504,-4.16030534351,3.29007633588
21.2333562374,0.03125,-1.01538085938,0.06689453125,-13.8091603053,-0.0229007633588,1.24427480916
21.251840353,0.030029296875,-0.966796875,0.019287109375,-6.04580152672,2.92366412214,2.45801526718
21.2702953815,0.029296875,-1.0234375,0.08251953125,-1.28244274809,4.84732824427,-0.496183206107
21.2887432575,0.0322265625,-0.970458984375,0.060302734375,2.91603053435,1.89312977099,-0.809160305344
21.3071901798,0.017578125,-0.9560546875,0.052001953125,9.09923664122,3.52671755725,0.00763358778626
21.3256411552,0.017578125,-0.98828125,0.094482421875,11.8320610687,1.12213740458,-0.671755725191
21.344091177,0.029541015625,-0.98681640625,0.105712890625,9.60305343511,1.03053435115,-1.38167938931
21.3625621796,0.021240234375,-0.99609375,0.06787109375,8.12213740458,2.77099236641,-1.90076335878
21.3810071945,0.0224609375,-0.933837890625,0.09912109375,4.39694656489,-1.2213740458,-0.862595419847
21.3994541168,0.015625,-0.969970703125,0.06494140625,-6.40458015267,0.18320610687,0.671755725191
21.4179029465,0.03564453125,-0.996826171875,0.099609375,-3.85496183206,0.12213740458,-0.748091603053
21.4363498688,0.02490234375,-1.00366210938,0.0966796875,-1.23664122137,-1.68702290076,-3.73282442748
21.4548277855,0.01611328125,-0.973388671875,0.068603515625,-2.99236641221,-0.572519083969,-3.46564885496
21.4732868671,0.028076171875,-0.982666015625,0.090087890625,0.396946564885,1.06106870229,-3.12213740458
21.4917478561,0.0244140625,-0.95849609375,0.09375,4.13740458015,-0.106870229008,-3.09923664122
21.5101890564,0.0224609375,-0.998291015625,0.040283203125,-3.5572519084,6.1679389313,-5.02290076336
21.5286421776,0.02294921875,-0.9521484375,0.065185546875,13.427480916,0.534351145038,-4.45038167939
21.5471012592,0.020263671875,-1.02514648438,0.085205078125,28.427480916,2.32824427481,-7.98473282443
21.5655772686,0.037841796875,-0.974365234375,0.108154296875,54.6259541985,-1.91603053435,-7.62595419847
21.5840444565,0.04345703125,-1.02514648438,0.156005859375,112.083969466,0.0687022900763,-12.8778625954
21.602499485,0.061279296875,-1.0322265625,0.26953125,158.969465649,-7.19083969466,-22.427480916
21.6209592819,0.0283203125,-0.901123046875,0.2119140625,186.893129771,6.83969465649,-17.6641221374
21.6394073963,0.041259765625,-0.83349609375,0.215087890625,192.755725191,13.6946564885,-7.80152671756
21.6578643322,0.040283203125,-0.866455078125,0.3681640625,189.946564885,10.213740458,-10.641221374
21.6763443947,0.013427734375,-0.563720703125,0.391845703125,250.129770992,3.14503816794,29.1908396947
21.6948063374,0.067138671875,-0.697998046875,0.3935546875,204.190839695,-6.75572519084,7.5572519084
21.7132613659,0.060302734375,-0.838623046875,0.564208984375,210.480916031,-1.35877862595,-6.54961832061
21.7317252159,0.021728515625,-0.803955078125,0.6240234375,205.519083969,-10.893129771,-11.2519083969
21.750174284,0.051025390625,-0.59912109375,0.6142578125,193.625954198,-17.1221374046,-10.8091603053
21.7686562538,0.0224609375,-0.646484375,0.730224609375,145.0,-20.0534351145,-25.3893129771
21.7871172428,0.068359375,-0.548828125,0.65625,138.488549618,-20.9236641221,-19.4580152672
21.805573225,0.085693359375,-0.444580078125,0.667236328125,112.503816794,-18.1450381679,-9.06870229008
21.8240332603,0.08056640625,-0.45361328125,0.670654296875,121.557251908,-15.2595419847,9.13740458015
21.8424942493,0.052734375,-0.55029296875,0.767822265625,153.13740458,-18.2900763359,4.41221374046
21.8609461784,0.062255859375,-0.48681640625,0.696533203125,146.061068702,-15.7938931298,-2.95419847328
21.8794250488,0.072021484375,-0.371826171875,0.756103515625,191.526717557,-12.3969465649,-1.92366412214
21.8978850842,0.0791015625,-0.331787109375,0.80908203125,149.687022901,-12.1374045802,-8.7786259542
21.9205741882,0.095458984375,-0.212890625,0.746826171875,53.5954198473,-10.2824427481,-3.86259541985
21.9390611649,0.09521484375,-0.23388671875,0.81884765625,63.0687022901,-6.90839694656,-1.14503816794
21.9575192928,0.1005859375,-0.2490234375,0.8271484375,78.1374045802,-10.8702290076,-2.22900763359
21.9759814739,0.1201171875,-0.20166015625,0.8515625,35.7709923664,-9.31297709924,5.53435114504
21.9944696426,0.085205078125,-0.230224609375,0.806884765625,56.2213740458,-4.03816793893,3.81679389313
22.0129306316,0.07958984375,-0.197021484375,0.81982421875,63.9618320611,-10.0534351145,-7.6106870229
22.0313937664,0.115234375,-0.136474609375,0.850830078125,54.3740458015,-9.51908396947,-4.20610687023
22.0498428345,0.122314453125,-0.079833984375,0.84716796875,67.1984732824,-9.02290076336,-3.18320610687
22.0682990551,0.1015625,-0.17138671875,0.77490234375,62.4122137405,-9.19083969466,-1.49618320611
22.0867800713,0.111328125,-0.098388671875,0.82763671875,61.8396946565,-8.4427480916,-1.25190839695
